timestamp,packet_id,accel_x,accel_y,accel_z,gyro_x,gyro_y,gyro_z,mag_x,mag_y,mag_z,battery
1760011748.6542048,1,0.98,0.02,9.81,0.1,-0.2,0.0,25.4,-12.3,45.6,3.1
1760011748.6742065,2,0.97,0.03,9.82,0.0,-0.1,0.1,25.2,-12.1,45.8,3.1
1760011748.6942074,3,0.96,0.04,9.83,-0.1,0.0,0.2,25.0,-11.9,46.0,3.0
1760027543.575112,0,-169.0554065934066,38.62912087912088,-29.437186813186816,124.80152671755724,21.47328244274809,46.90076335877863,0.091743119266055,-2635.4128440366976,162.8440366972477,0.0
1760027543.5861752,1,-0.5102637362637363,1.5954725274725277,-220.627978021978,41.03053435114504,-15.63358778625954,120.89312977099236,469.4495412844037,493.2110091743119,0.091743119266055,0.0
1760027543.5965133,2,-0.4455824175824175,1.688901098901099,-146.99907692307693,-5.870229007633588,1.9465648854961832,120.90076335877863,469.4495412844037,493.2110091743119,0.091743119266055,0.0
1760027543.60684,3,-0.5821318681318681,1.6457802197802198,-154.30087912087913,33.213740458015266,15.63358778625954,111.12977099236642,445.9633027522936,751.559633027523,0.091743119266055,0.0
1760027543.6172464,4,-0.6036923076923078,1.6673406593406594,-176.4290769230769,17.580152671755727,-23.450381679389317,111.12213740458016,445.9633027522936,751.559633027523,0.091743119266055,0.0
1760027543.6281035,5,-0.539010989010989,1.6026593406593408,-161.69610989010988,41.03053435114504,-39.083969465648856,124.80152671755724,469.4495412844037,563.6697247706422,0.091743119266055,0.0
1760027543.639604,6,-0.539010989010989,1.617032967032967,-198.46384615384616,-13.687022900763358,17.580152671755727,124.80916030534353,469.4495412844037,563.6697247706422,0.091743119266055,0.0
1760027543.6503766,7,-0.4383956043956044,1.6673406593406594,-227.90821978021975,25.396946564885496,0.0,105.26717557251908,516.4220183486239,634.1284403669725,0.091743119266055,0.0
1760027543.6609652,8,-0.4096483516483516,1.6673406593406594,-205.7728351648352,17.580152671755727,15.63358778625954,105.26717557251908,516.4220183486239,634.1284403669725,0.091743119266055,0.0
1760027543.6713486,9,-0.4024615384615385,1.6601538461538463,-205.8518901098901,33.213740458015266,-7.816793893129771,126.7557251908397,375.5045871559633,587.1559633027523,0.091743119266055,0.0
1760027543.6816852,10,-0.424021978021978,1.724835164835165,-213.22556043956047,-52.770992366412216,95.74809160305344,126.76335877862596,375.5045871559633,587.1559633027523,0.091743119266055,0.0
1760027543.6920874,11,-0.5677582417582419,1.631406593406593,-161.75360439560438,33.213740458015266,-31.267175572519083,109.16793893129773,445.9633027522936,540.1834862385322,0.091743119266055,0.0
1760027543.7025118,12,-0.5821318681318681,1.7104615384615385,-169.04821978021977,9.763358778625957,-31.267175572519083,109.16793893129773,445.9633027522936,540.1834862385322,0.091743119266055,0.0
1760027543.712761,13,1.2576923076923077,0.0,-198.49978021978023,17.580152671755727,23.450381679389317,120.90076335877863,398.99082568807336,634.1284403669725,0.091743119266055,0.0
1760027543.72312,14,-0.3234065934065934,1.7823296703296705,-176.5225054945055,41.03053435114504,31.267175572519083,120.90076335877863,398.99082568807336,634.1284403669725,0.091743119266055,0.0
1760027543.7335303,15,-0.539010989010989,1.7751428571428571,-191.22672527472525,-13.687022900763358,41.03053435114504,140.44274809160305,305.045871559633,516.6972477064221,0.091743119266055,0.0
1760027543.743892,16,-0.5533846153846155,1.7607692307692309,-161.68892307692306,25.396946564885496,15.63358778625954,140.44274809160305,305.045871559633,516.6972477064221,0.091743119266055,0.0
1760027543.7541642,17,-0.4958901098901099,1.5236043956043956,-198.49978021978023,1.9465648854961832,70.35114503816794,120.90076335877863,422.47706422018354,516.6972477064221,0.091743119266055,0.0
1760027543.764433,18,-0.4455824175824175,1.7535824175824175,-183.7668131868132,-13.687022900763358,25.396946564885496,120.90076335877863,422.47706422018354,516.6972477064221,0.091743119266055,0.0
1760027543.7747386,19,-0.3880879120879121,1.688901098901099,-183.80993406593407,95.74809160305344,39.083969465648856,128.7175572519084,375.5045871559633,563.6697247706422,0.091743119266055,0.0
1760027543.7850623,20,-0.5174505494505495,1.7032747252747251,-154.3799340659341,41.03053435114504,39.083969465648856,122.85496183206106,445.9633027522936,657.6146788990826,0.091743119266055,0.0
1760027543.79537,21,-0.5461978021978022,1.573912087912088,-147.1356263736264,33.213740458015266,23.450381679389317,122.85496183206106,445.9633027522936,657.6146788990826,0.091743119266055,0.0
1760027543.8057032,22,-0.4455824175824175,1.5451648351648353,-220.64235164835165,-13.687022900763358,17.580152671755727,118.9465648854962,375.5045871559633,540.1834862385322,0.091743119266055,0.0
1760027543.8160424,23,-0.5318241758241758,1.6673406593406594,-205.86626373626376,41.03053435114504,-7.816793893129771,118.93893129770991,375.5045871559633,540.1834862385322,0.091743119266055,0.0
1760027543.8263824,24,-0.574945054945055,1.7392087912087917,228.28193406593408,56.66412213740458,23.450381679389317,130.67175572519085,352.0183486238532,540.1834862385322,0.091743119266055,0.0
1760027543.8366935,25,-0.424021978021978,1.7463956043956046,213.65676923076924,17.580152671755727,31.267175572519083,130.67175572519085,352.0183486238532,540.1834862385322,0.091743119266055,0.0
1760027543.8469946,26,-0.5677582417582419,1.688901098901099,-205.9453186813187,-13.687022900763358,-37.13740458015267,122.8473282442748,492.9357798165138,634.1284403669725,0.091743119266055,0.0
1760027543.8572843,27,-0.4671428571428571,1.6457802197802198,-161.72485714285713,48.847328244274806,15.63358778625954,122.85496183206106,492.9357798165138,634.1284403669725,0.091743119266055,0.0
1760027543.8677115,28,-0.5174505494505495,1.7032747252747251,206.24716483516485,9.763358778625957,23.450381679389317,113.08396946564883,305.045871559633,516.6972477064221,0.091743119266055,0.0
1760027543.878085,29,-0.5461978021978022,1.6817142857142855,-169.01947252747252,1.9465648854961832,-23.450381679389317,113.0763358778626,305.045871559633,516.6972477064221,0.091743119266055,0.0
1760027543.8883994,30,-0.4312087912087912,1.7104615384615385,-198.4854065934066,1.9465648854961832,15.63358778625954,115.0381679389313,469.4495412844037,657.6146788990826,0.091743119266055,0.0
1760027543.898701,31,-0.4312087912087912,1.7392087912087917,-146.98470329670332,9.763358778625957,62.534351145038165,115.0381679389313,469.4495412844037,657.6146788990826,0.091743119266055,0.0
1760027543.909022,32,-0.4671428571428571,1.6960879120879122,-183.8171208791209,9.763358778625957,15.63358778625954,116.99236641221374,398.99082568807336,516.6972477064221,0.091743119266055,0.0
1760027543.9193797,33,-0.4096483516483516,1.8110769230769237,-205.87345054945052,17.580152671755727,23.450381679389317,116.99236641221374,398.99082568807336,516.6972477064221,0.091743119266055,0.0
1760027543.9297185,34,-0.574945054945055,1.609846153846154,-183.86742857142855,-21.50381679389313,41.03053435114504,120.90076335877863,516.4220183486239,610.6422018348624,0.091743119266055,0.0
1760027543.9400291,35,-0.4815164835164835,1.7104615384615385,-161.67454945054945,9.763358778625957,39.083969465648856,120.90076335877863,516.4220183486239,610.6422018348624,0.091743119266055,0.0
1760027543.9504044,36,-0.4383956043956044,1.7032747252747251,-169.07696703296705,25.396946564885496,0.0,118.9465648854962,422.47706422018354,563.6697247706422,0.091743119266055,0.0
1760027543.960808,37,-0.424021978021978,1.6673406593406594,-176.47938461538462,56.66412213740458,46.90076335877863,118.9465648854962,422.47706422018354,563.6697247706422,0.091743119266055,0.0
1760027543.971135,38,-0.4887032967032967,1.6960879120879122,-191.1404835164835,-5.870229007633588,-29.3206106870229,115.03053435114504,328.5321100917431,681.1009174311927,0.091743119266055,0.0
1760027543.9815476,39,-0.5102637362637363,1.7895164835164834,-154.2936923076923,17.580152671755727,62.534351145038165,115.0381679389313,328.5321100917431,681.1009174311927,0.091743119266055,0.0
1760027543.9919398,40,-0.5246373626373626,1.7392087912087917,-227.93696703296703,-13.687022900763358,17.580152671755727,113.08396946564883,492.9357798165138,587.1559633027523,0.091743119266055,0.0
1760027544.0023143,41,-0.5246373626373626,1.688901098901099,-183.80993406593407,1.9465648854961832,46.90076335877863,113.08396946564883,492.9357798165138,587.1559633027523,0.091743119266055,0.0
1760027544.0125892,42,-0.424021978021978,1.5451648351648353,-220.627978021978,33.213740458015266,85.98473282442748,111.12977099236642,516.4220183486239,587.1559633027523,0.091743119266055,0.0
1760027544.0229144,43,-0.4958901098901099,1.6817142857142855,-168.99072527472526,1.9465648854961832,78.16793893129771,111.12977099236642,516.4220183486239,587.1559633027523,0.091743119266055,0.0
1760027544.033256,44,-0.574945054945055,1.6457802197802198,-183.80993406593407,-13.687022900763358,87.93129770992367,118.9465648854962,328.5321100917431,587.1559633027523,0.091743119266055,0.0
1760027544.0435584,45,-0.4383956043956044,1.724835164835165,-205.86626373626376,-44.954198473282446,103.5648854961832,118.9465648854962,328.5321100917431,587.1559633027523,0.091743119266055,0.0
1760027544.0538323,46,-0.5246373626373626,1.7535824175824175,-169.14164835164834,25.396946564885496,101.61832061068702,111.12977099236642,375.5045871559633,728.0733944954129,0.091743119266055,0.0
1760027544.0641537,47,-0.424021978021978,1.617032967032967,-213.27586813186812,-44.954198473282446,95.74809160305344,111.12977099236642,375.5045871559633,728.0733944954129,0.091743119266055,0.0
1760027544.0745597,48,-0.424021978021978,1.6601538461538463,-132.2661098901099,1.9465648854961832,62.534351145038165,124.80916030534353,375.5045871559633,493.2110091743119,0.091743119266055,0.0
1760027544.0848806,49,-0.5965054945054945,1.6457802197802198,-183.7955604395605,33.213740458015266,70.35114503816794,124.80916030534353,375.5045871559633,493.2110091743119,0.091743119266055,0.0
1760027544.0953107,50,-0.5821318681318681,1.767956043956044,-176.39314285714286,33.213740458015266,39.083969465648856,126.76335877862596,352.0183486238532,681.1009174311927,0.091743119266055,0.0
1760027544.105728,51,-0.4743296703296704,1.7751428571428571,-169.04103296703298,33.213740458015266,-7.816793893129771,126.7557251908397,352.0183486238532,681.1009174311927,0.091743119266055,0.0
1760027544.1167767,52,-0.574945054945055,1.6960879120879122,-139.68290109890108,17.580152671755727,7.816793893129771,115.0381679389313,375.5045871559633,493.2110091743119,0.091743119266055,0.0
1760027544.1275065,53,-0.574945054945055,1.7320219780219783,228.3538021978022,1.9465648854961832,39.083969465648856,115.0381679389313,375.5045871559633,493.2110091743119,0.091743119266055,0.0
1760027544.1378632,54,-0.539010989010989,1.5954725274725277,-169.04821978021977,25.396946564885496,46.90076335877863,118.9465648854962,469.4495412844037,634.1284403669725,0.091743119266055,0.0
1760027544.148214,55,-0.4455824175824175,1.617032967032967,-213.1321318681319,-37.13740458015267,80.1145038167939,118.9465648854962,469.4495412844037,634.1284403669725,0.091743119266055,0.0
1760027544.1586275,56,-0.4383956043956044,1.724835164835165,-168.961978021978,-5.870229007633588,64.48091603053435,115.0381679389313,398.99082568807336,681.1009174311927,0.091743119266055,0.0
1760027544.1689434,57,-0.5677582417582419,1.7535824175824175,-169.12727472527473,25.396946564885496,54.7175572519084,115.0381679389313,398.99082568807336,681.1009174311927,0.091743119266055,0.0
1760027544.1792183,58,-0.4743296703296704,1.7967032967032968,-176.4721978021978,56.66412213740458,54.7175572519084,118.9465648854962,375.5045871559633,657.6146788990826,0.091743119266055,0.0
1760027544.189729,59,-0.4958901098901099,1.6457802197802198,228.38973626373627,33.213740458015266,70.35114503816794,118.9465648854962,375.5045871559633,657.6146788990826,0.091743119266055,0.0
1760027544.2001352,60,-0.4096483516483516,1.6242197802197802,-191.10454945054943,-37.13740458015267,72.29770992366412,122.85496183206106,375.5045871559633,610.6422018348624,0.091743119266055,0.0
1760027544.2106524,61,-0.5318241758241758,1.7032747252747251,-213.1465054945055,56.66412213740458,54.7175572519084,122.85496183206106,375.5045871559633,610.6422018348624,0.091743119266055,0.0
1760027544.2209752,62,-0.6108791208791209,1.724835164835165,-205.72252747252747,41.03053435114504,15.63358778625954,120.90076335877863,305.045871559633,704.5871559633028,0.091743119266055,0.0
1760027544.231327,63,-0.5246373626373626,1.6242197802197802,-139.53916483516485,9.763358778625957,31.267175572519083,113.08396946564883,586.8807339449542,587.1559633027523,0.091743119266055,0.0
1760027544.241614,64,-0.5533846153846155,1.688901098901099,-227.9154065934066,9.763358778625957,101.61832061068702,113.08396946564883,586.8807339449542,587.1559633027523,0.091743119266055,0.0
1760027544.2519035,65,-0.654,1.7607692307692309,-191.01112087912088,9.763358778625957,15.63358778625954,116.99236641221374,305.045871559633,516.6972477064221,0.091743119266055,0.0
1760027544.2624586,66,-0.5893186813186814,1.7032747252747251,228.32505494505492,33.213740458015266,39.083969465648856,116.99236641221374,305.045871559633,516.6972477064221,0.091743119266055,0.0
1760027544.2728298,67,-0.5461978021978022,1.8182637362637364,-205.8303296703297,56.66412213740458,46.90076335877863,126.76335877862596,305.045871559633,704.5871559633028,0.091743119266055,0.0
1760027544.283131,68,-0.4958901098901099,1.7032747252747251,-191.11892307692307,17.580152671755727,101.61832061068702,126.76335877862596,305.045871559633,704.5871559633028,0.091743119266055,0.0
1760027544.2934444,69,-0.6611868131868132,1.6026593406593408,228.48316483516484,25.396946564885496,93.80152671755724,113.08396946564883,516.4220183486239,728.0733944954129,0.091743119266055,0.0
1760027544.303831,70,-0.4671428571428571,1.6529670329670332,-183.83868131868127,-13.687022900763358,87.93129770992367,113.08396946564883,516.4220183486239,728.0733944954129,0.091743119266055,0.0
1760027544.314221,71,-0.5893186813186814,1.6673406593406594,-183.77400000000003,17.580152671755727,78.16793893129771,109.17557251908396,422.47706422018354,540.1834862385322,0.091743119266055,0.0
1760027544.324562,72,-0.5174505494505495,1.6529670329670332,-220.6136043956044,33.213740458015266,101.61832061068702,109.17557251908396,422.47706422018354,540.1834862385322,0.091743119266055,0.0
1760027544.3348825,73,-0.5893186813186814,1.5954725274725277,-235.35375824175824,9.763358778625957,46.90076335877863,120.90076335877863,657.3394495412844,610.6422018348624,0.091743119266055,0.0
1760027544.3452682,74,-0.5030769230769231,1.631406593406593,-220.4626813186813,17.580152671755727,78.16793893129771,120.90076335877863,657.3394495412844,610.6422018348624,0.091743119266055,0.0
1760027544.3556657,75,-0.5246373626373626,1.767956043956044,-205.7943956043956,1.9465648854961832,62.534351145038165,120.90076335877863,516.4220183486239,657.6146788990826,0.091743119266055,0.0
1760027544.3659997,76,-0.6971208791208792,1.8110769230769237,-198.47103296703295,-52.770992366412216,33.213740458015266,120.90076335877863,516.4220183486239,657.6146788990826,0.091743119266055,0.0
1760027544.3763118,77,-0.5174505494505495,1.6960879120879122,-161.71048351648352,48.847328244274806,85.98473282442748,111.12977099236642,492.9357798165138,563.6697247706422,0.091743119266055,0.0
1760027544.3866963,78,-0.4024615384615385,1.7032747252747251,-139.60384615384615,9.763358778625957,70.35114503816794,111.12977099236642,492.9357798165138,563.6697247706422,0.091743119266055,0.0
1760027544.3970642,79,-0.5030769230769231,1.6529670329670332,213.67114285714288,33.213740458015266,70.35114503816794,124.80916030534353,469.4495412844037,587.1559633027523,0.091743119266055,0.0
1760027544.4073827,80,-0.4887032967032967,1.688901098901099,-213.2614945054945,9.763358778625957,54.7175572519084,124.80916030534353,469.4495412844037,587.1559633027523,0.091743119266055,0.0
1760027544.417751,81,-0.5893186813186814,1.6385934065934065,-183.7955604395605,17.580152671755727,101.61832061068702,113.08396946564883,563.3944954128441,657.6146788990826,0.091743119266055,0.0
1760027544.4280922,82,1.2073846153846155,0.0,-227.85072527472528,-5.870229007633588,127.01526717557252,113.08396946564883,563.3944954128441,657.6146788990826,0.091743119266055,0.0
1760027544.4384117,83,-29.868395604395605,14.776087912087911,14.668285714285716,9.419847328244275,-132.8854961832061,-35.18320610687023,868.9908256880734,-9.174311926605505,1.1009174311926606,0.0
1760027544.4487722,84,2.0482417582417582,-171.10364835164833,-29.868395604395605,15.69465648854962,15.572519083969466,9.404580152671755,-1573.577981651376,-422.8440366972477,493.2110091743119,0.0
1760027544.459129,85,2.0482417582417582,128.7876923076923,-29.861208791208792,15.687022900763358,15.564885496183209,9.404580152671755,-1526.605504587156,-422.8440366972477,352.2935779816514,0.0
1760027544.4695091,86,-62.26654945054945,-5.117010989010989,0.1078021978021978,2.145038167938931,-44.94656488549618,-31.7175572519084,188.71559633027525,187.1559633027523,113.39449541284404,0.0
1760027544.479814,87,-0.4958901098901099,1.6673406593406594,-220.627978021978,9.763358778625957,7.816793893129771,111.12977099236642,375.5045871559633,587.1559633027523,0.091743119266055,0.0
1760027544.4900925,88,-0.4671428571428571,1.6242197802197802,-183.7452527472528,9.763358778625957,117.25190839694656,122.85496183206106,352.0183486238532,657.6146788990826,0.091743119266055,0.0
1760027544.500424,89,-0.539010989010989,1.7463956043956046,-205.8590769230769,-13.687022900763358,111.38167938931298,122.85496183206106,352.0183486238532,657.6146788990826,0.091743119266055,0.0
1760027544.5108266,90,-0.5174505494505495,1.8182637362637364,-235.28907692307692,33.213740458015266,101.61832061068702,128.7175572519084,563.3944954128441,563.6697247706422,0.091743119266055,0.0
1760027544.521192,91,-0.4887032967032967,1.6817142857142855,-213.21118681318683,48.847328244274806,85.98473282442748,128.7175572519084,563.3944954128441,563.6697247706422,0.091743119266055,0.0
1760027544.531597,92,-0.5246373626373626,1.724835164835165,-191.14767032967032,64.48091603053435,62.534351145038165,113.08396946564883,352.0183486238532,704.5871559633028,0.091743119266055,0.0
1760027544.5419009,93,-0.459956043956044,1.6601538461538463,-183.86024175824176,9.763358778625957,117.25190839694656,113.08396946564883,352.0183486238532,704.5871559633028,0.091743119266055,0.0
1760027544.5522077,94,-0.5030769230769231,1.5954725274725277,-191.10454945054943,-13.687022900763358,56.66412213740458,111.12977099236642,281.5596330275229,610.6422018348624,0.091743119266055,0.0
1760027544.562557,95,-0.4887032967032967,1.7320219780219783,198.84474725274725,-13.687022900763358,87.93129770992367,111.12977099236642,281.5596330275229,610.6422018348624,0.091743119266055,0.0
1760027544.5728889,96,-0.5461978021978022,1.6960879120879122,-176.43626373626375,1.9465648854961832,62.534351145038165,113.08396946564883,469.4495412844037,751.559633027523,0.091743119266055,0.0
1760027544.583173,97,-0.459956043956044,1.7320219780219783,-191.03986813186813,25.396946564885496,39.083969465648856,113.08396946564883,469.4495412844037,751.559633027523,0.091743119266055,0.0
1760027544.593534,98,-0.4887032967032967,1.6457802197802198,-176.4147032967033,25.396946564885496,109.4351145038168,126.76335877862596,422.47706422018354,634.1284403669725,0.091743119266055,0.0
1760027544.6039126,99,-0.6468131868131869,1.724835164835165,-213.23993406593408,-29.3206106870229,56.66412213740458,126.76335877862596,422.47706422018354,634.1284403669725,0.091743119266055,0.0
1760027544.6142356,100,-0.539010989010989,1.6817142857142855,-191.1836043956044,17.580152671755727,70.35114503816794,116.99236641221374,398.99082568807336,704.5871559633028,0.091743119266055,0.0
1760027544.6245432,101,-0.3809010989010989,1.688901098901099,-198.55727472527477,87.93129770992367,78.16793893129771,116.99236641221374,398.99082568807336,704.5871559633028,0.091743119266055,0.0
1760027544.634871,102,-0.5174505494505495,1.7032747252747251,-147.0925054945055,9.763358778625957,39.083969465648856,118.9465648854962,422.47706422018354,634.1284403669725,0.091743119266055,0.0
1760027544.6452208,103,-0.539010989010989,1.7032747252747251,-146.94876923076924,1.9465648854961832,85.98473282442748,118.9465648854962,422.47706422018354,634.1284403669725,0.091743119266055,0.0
1760027544.655627,104,-0.4168351648351648,1.6026593406593408,-198.49978021978023,56.66412213740458,39.083969465648856,126.76335877862596,352.0183486238532,610.6422018348624,0.091743119266055,0.0
1760027544.6660206,105,-0.4527692307692308,1.7463956043956046,-191.1907912087912,-13.687022900763358,80.1145038167939,126.76335877862596,352.0183486238532,610.6422018348624,0.091743119266055,0.0
1760027544.67637,106,-0.5102637362637363,1.631406593406593,-191.1261098901099,-5.870229007633588,72.29770992366412,122.85496183206106,445.9633027522936,587.1559633027523,0.091743119266055,0.0
1760027544.6866689,107,-0.4743296703296704,1.688901098901099,-205.80876923076923,17.580152671755727,164.15267175572518,122.85496183206106,445.9633027522936,587.1559633027523,0.091743119266055,0.0
1760027544.6969862,108,-0.5030769230769231,1.6817142857142855,-235.3178241758242,-29.3206106870229,103.5648854961832,122.85496183206106,563.3944954128441,751.559633027523,0.091743119266055,0.0
1760027544.7072802,109,-0.4815164835164835,1.724835164835165,-191.09017582417584,33.213740458015266,46.90076335877863,128.7175572519084,492.9357798165138,751.559633027523,0.091743119266055,0.0
1760027544.7176294,110,-0.3809010989010989,1.6457802197802198,-169.12727472527473,1.9465648854961832,101.61832061068702,128.7175572519084,492.9357798165138,751.559633027523,0.091743119266055,0.0
1760027544.7279253,111,-0.574945054945055,1.5954725274725277,-176.45063736263737,64.48091603053435,101.61832061068702,118.9465648854962,422.47706422018354,728.0733944954129,0.091743119266055,0.0
1760027544.738211,112,-0.6396263736263736,1.6673406593406594,-147.02782417582418,25.396946564885496,62.534351145038165,118.9465648854962,422.47706422018354,728.0733944954129,0.091743119266055,0.0
1760027544.7486055,113,-0.5821318681318681,1.5882857142857143,213.6136483516484,17.580152671755727,109.4351145038168,118.9465648854962,352.0183486238532,728.0733944954129,0.091743119266055,0.0
1760027544.758939,114,-0.4024615384615385,1.724835164835165,-161.63142857142856,1.9465648854961832,70.35114503816794,118.9465648854962,352.0183486238532,728.0733944954129,0.091743119266055,0.0
1760027544.7692597,115,-0.5605714285714286,1.7463956043956046,-169.09852747252748,25.396946564885496,117.25190839694656,130.67175572519085,398.99082568807336,634.1284403669725,0.091743119266055,0.0
1760027544.779626,116,-0.4455824175824175,1.7463956043956046,-176.37876923076925,48.847328244274806,23.450381679389317,130.67175572519085,398.99082568807336,634.1284403669725,0.091743119266055,0.0
1760027544.7899387,117,-0.4671428571428571,1.7895164835164834,228.36098901098904,33.213740458015266,62.534351145038165,130.67175572519085,445.9633027522936,775.045871559633,0.091743119266055,0.0
1760027544.8002386,118,-0.5821318681318681,1.7463956043956046,-183.67338461538463,9.763358778625957,93.80152671755724,130.67175572519085,445.9633027522936,775.045871559633,0.091743119266055,0.0
1760027544.8106103,119,-0.5102637362637363,1.5882857142857143,-176.43626373626375,25.396946564885496,15.63358778625954,116.99236641221374,375.5045871559633,798.5321100917431,0.091743119266055,0.0
1760027544.8209412,120,-0.3809010989010989,1.6745274725274726,-146.98470329670332,9.763358778625957,78.16793893129771,116.99236641221374,375.5045871559633,798.5321100917431,0.091743119266055,0.0
1760027544.831227,121,-0.5246373626373626,1.6026593406593408,-169.03384615384616,-5.870229007633588,87.93129770992367,118.9465648854962,398.99082568807336,681.1009174311927,0.091743119266055,0.0
1760027544.841509,122,-0.5461978021978022,1.6385934065934065,-191.1332967032967,-5.870229007633588,127.01526717557252,118.9465648854962,398.99082568807336,681.1009174311927,0.091743119266055,0.0
1760027544.8518384,123,-0.5318241758241758,1.7967032967032968,-205.80876923076923,1.9465648854961832,7.816793893129771,116.99236641221374,469.4495412844037,610.6422018348624,0.091743119266055,0.0
1760027544.8622007,124,-0.5893186813186814,1.6601538461538463,-213.1465054945055,48.847328244274806,93.80152671755724,116.99236641221374,469.4495412844037,610.6422018348624,0.091743119266055,0.0
1760027544.8726318,125,-0.4096483516483516,1.5595384615384615,-161.60986813186813,1.9465648854961832,93.80152671755724,128.7175572519084,492.9357798165138,775.045871559633,0.091743119266055,0.0
1760027544.8829763,126,-0.5461978021978022,1.724835164835165,-176.33564835164836,17.580152671755727,54.7175572519084,128.7175572519084,492.9357798165138,775.045871559633,0.091743119266055,0.0
1760027544.8933177,127,-0.4887032967032967,1.617032967032967,-139.61103296703297,-21.50381679389313,103.5648854961832,122.85496183206106,539.908256880734,845.5045871559633,0.091743119266055,0.0
1760027544.903712,128,-0.5461978021978022,1.767956043956044,-213.2471208791209,25.396946564885496,70.35114503816794,122.85496183206106,539.908256880734,845.5045871559633,0.091743119266055,0.0
1760027544.914071,129,-0.5677582417582419,1.8326373626373629,-183.72369230769232,17.580152671755727,125.06870229007632,115.0381679389313,352.0183486238532,704.5871559633028,0.091743119266055,0.0
1760027544.9243777,130,-0.5461978021978022,1.6457802197802198,-213.1752527472528,64.48091603053435,101.61832061068702,115.0381679389313,352.0183486238532,704.5871559633028,0.091743119266055,0.0
1760027544.934738,131,-0.459956043956044,1.6960879120879122,-198.4350989010989,25.396946564885496,70.35114503816794,126.76335877862596,492.9357798165138,775.045871559633,0.091743119266055,0.0
1760027544.945128,132,-0.6396263736263736,1.6529670329670332,-191.14767032967032,41.03053435114504,117.25190839694656,126.76335877862596,492.9357798165138,775.045871559633,0.091743119266055,0.0
1760027544.9555178,133,-0.4958901098901099,1.6745274725274726,-183.72369230769232,-52.770992366412216,56.66412213740458,132.6259541984733,281.5596330275229,563.6697247706422,0.091743119266055,0.0
1760027544.9658616,134,-0.6396263736263736,1.6673406593406594,-227.82916483516485,-13.687022900763358,48.847328244274806,132.6259541984733,281.5596330275229,563.6697247706422,0.091743119266055,0.0
1760027544.976221,135,-0.4168351648351648,1.566725274725275,-132.30923076923077,-5.870229007633588,72.29770992366412,132.6259541984733,516.4220183486239,563.6697247706422,0.091743119266055,0.0
1760027544.9865894,136,-0.4958901098901099,1.6242197802197802,-183.7955604395605,17.580152671755727,54.7175572519084,132.6259541984733,516.4220183486239,563.6697247706422,0.091743119266055,0.0
1760027544.9969487,137,-0.4168351648351648,1.6529670329670332,-220.53454945054943,1.9465648854961832,15.63358778625954,111.12977099236642,445.9633027522936,587.1559633027523,0.091743119266055,0.0
1760027545.0072286,138,-0.574945054945055,1.7032747252747251,-176.48657142857144,-21.50381679389313,134.8320610687023,111.12977099236642,445.9633027522936,587.1559633027523,0.091743119266055,0.0
1760027545.0175335,139,1.2864395604395606,0.0143736263736263,-213.2471208791209,25.396946564885496,70.35114503816794,111.12977099236642,633.8532110091744,657.6146788990826,0.091743119266055,0.0
1760027545.0278826,140,-0.5174505494505495,1.7032747252747251,-169.09134065934066,-37.13740458015267,17.580152671755727,111.12977099236642,633.8532110091744,657.6146788990826,0.091743119266055,0.0
1760027545.038284,141,-0.4168351648351648,1.609846153846154,-183.90336263736265,33.213740458015266,46.90076335877863,111.12977099236642,492.9357798165138,681.1009174311927,0.091743119266055,0.0
1760027545.048648,142,-0.539010989010989,1.6960879120879122,-176.39314285714286,-5.870229007633588,72.29770992366412,111.12977099236642,492.9357798165138,681.1009174311927,0.091743119266055,0.0
1760027545.0590398,143,-0.4168351648351648,1.7895164835164834,-198.47103296703295,1.9465648854961832,54.7175572519084,128.7175572519084,516.4220183486239,728.0733944954129,0.091743119266055,0.0
1760027545.0694492,144,-0.3880879120879121,1.6601538461538463,-191.11173626373625,9.763358778625957,23.450381679389317,128.7175572519084,516.4220183486239,728.0733944954129,0.091743119266055,0.0
1760027545.0798242,145,-0.4958901098901099,1.6745274725274726,-213.089010989011,25.396946564885496,-7.816793893129771,120.89312977099236,422.47706422018354,728.0733944954129,0.091743119266055,0.0
1760027545.0901775,146,-0.4815164835164835,1.6817142857142855,-205.8518901098901,1.9465648854961832,23.450381679389317,120.90076335877863,422.47706422018354,728.0733944954129,0.091743119266055,0.0
1760027545.100592,147,-0.424021978021978,1.6960879120879122,-183.7524395604396,56.66412213740458,85.98473282442748,124.80916030534353,492.9357798165138,681.1009174311927,0.091743119266055,0.0
1760027545.1109326,148,-0.5533846153846155,1.6385934065934065,-183.78837362637364,-29.3206106870229,17.580152671755727,124.80916030534353,492.9357798165138,681.1009174311927,0.091743119266055,0.0
1760027545.1212175,149,-0.4096483516483516,1.7535824175824175,-198.47821978021975,48.847328244274806,93.80152671755724,116.99236641221374,469.4495412844037,634.1284403669725,0.091743119266055,0.0
1760027545.131549,150,-0.5102637362637363,1.767956043956044,-176.32846153846154,-29.3206106870229,-5.870229007633588,116.98473282442748,469.4495412844037,634.1284403669725,0.091743119266055,0.0
1760027545.1419802,151,-0.4887032967032967,1.6673406593406594,-154.30087912087913,48.847328244274806,39.083969465648856,116.99236641221374,492.9357798165138,751.559633027523,0.091743119266055,0.0
1760027545.1524625,152,-0.4743296703296704,1.7320219780219783,-183.68057142857143,-29.3206106870229,127.01526717557252,116.99236641221374,492.9357798165138,751.559633027523,0.091743119266055,0.0
1760027545.1627796,153,-0.4527692307692308,1.688901098901099,-176.37158241758243,-5.870229007633588,64.48091603053435,118.9465648854962,422.47706422018354,751.559633027523,0.091743119266055,0.0
1760027545.1731353,154,-0.5030769230769231,1.7032747252747251,-183.83149450549453,17.580152671755727,39.083969465648856,113.08396946564883,492.9357798165138,775.045871559633,0.091743119266055,0.0
1760027545.1835592,155,-0.4887032967032967,1.7535824175824175,-176.48657142857144,56.66412213740458,109.4351145038168,113.08396946564883,492.9357798165138,775.045871559633,0.091743119266055,0.0
1760027545.193958,156,-0.4383956043956044,1.6673406593406594,-191.1332967032967,80.1145038167939,101.61832061068702,116.99236641221374,445.9633027522936,681.1009174311927,0.091743119266055,0.0
1760027545.2042816,157,-0.4887032967032967,1.7032747252747251,-176.2997142857143,41.03053435114504,85.98473282442748,116.99236641221374,445.9633027522936,681.1009174311927,0.091743119266055,0.0
1760027545.2146184,158,-0.3880879120879121,1.7176483516483516,-205.8447032967033,41.03053435114504,15.63358778625954,115.0381679389313,469.4495412844037,681.1009174311927,0.091743119266055,0.0
1760027545.22499,159,-0.5605714285714286,1.7823296703296705,-213.2543076923077,1.9465648854961832,62.534351145038165,115.0381679389313,469.4495412844037,681.1009174311927,0.091743119266055,0.0
1760027545.235352,160,-0.4455824175824175,1.6745274725274726,-161.6601758241758,-5.870229007633588,64.48091603053435,115.0381679389313,398.99082568807336,704.5871559633028,0.091743119266055,0.0
1760027545.2456515,161,-0.4815164835164835,1.5954725274725277,-191.11892307692307,17.580152671755727,31.267175572519083,115.0381679389313,398.99082568807336,704.5871559633028,0.091743119266055,0.0
1760027545.2559855,162,-0.3809010989010989,1.5451648351648353,-147.035010989011,9.763358778625957,93.80152671755724,136.53435114503816,234.5871559633028,681.1009174311927,0.091743119266055,0.0
1760027545.2663867,163,-0.574945054945055,1.6026593406593408,-227.93696703296703,-5.870229007633588,72.29770992366412,136.53435114503816,234.5871559633028,681.1009174311927,0.091743119266055,0.0
1760027545.276749,164,-0.4743296703296704,1.6960879120879122,-205.80158241758244,25.396946564885496,-7.816793893129771,132.61832061068702,539.908256880734,751.559633027523,0.091743119266055,0.0
1760027545.2870567,165,-0.5533846153846155,1.7751428571428571,-169.07696703296705,9.763358778625957,54.7175572519084,132.6259541984733,539.908256880734,751.559633027523,0.091743119266055,0.0
1760027545.2974024,166,-0.5461978021978022,1.6817142857142855,-205.75127472527475,41.03053435114504,125.06870229007632,111.12977099236642,352.0183486238532,845.5045871559633,0.091743119266055,0.0
1760027545.3078585,167,-0.5893186813186814,1.6601538461538463,-191.1332967032967,-21.50381679389313,-13.687022900763358,111.12213740458016,352.0183486238532,845.5045871559633,0.091743119266055,0.0
1760027545.318209,168,-0.6252527472527473,1.6242197802197802,-132.19424175824176,-5.870229007633588,41.03053435114504,124.80916030534353,539.908256880734,610.6422018348624,0.091743119266055,0.0
1760027545.3285758,169,-0.5461978021978022,1.7032747252747251,-176.4721978021978,9.763358778625957,85.98473282442748,124.80916030534353,539.908256880734,610.6422018348624,0.091743119266055,0.0
1760027545.3389657,170,-0.5318241758241758,1.6601538461538463,-154.24338461538463,25.396946564885496,78.16793893129771,105.26717557251908,563.3944954128441,775.045871559633,0.091743119266055,0.0
1760027545.349357,171,-0.4743296703296704,1.7535824175824175,-161.67454945054945,25.396946564885496,7.816793893129771,105.26717557251908,563.3944954128441,775.045871559633,0.091743119266055,0.0
1760027545.3596723,172,-0.4455824175824175,1.6601538461538463,-176.44345054945055,41.03053435114504,148.51908396946564,118.9465648854962,492.9357798165138,587.1559633027523,0.091743119266055,0.0
1760027545.369947,173,-0.4312087912087912,1.6817142857142855,-220.512989010989,33.213740458015266,62.534351145038165,118.9465648854962,492.9357798165138,587.1559633027523,0.091743119266055,0.0
1760027545.380276,174,-0.459956043956044,1.6673406593406594,-213.2327472527473,25.396946564885496,46.90076335877863,120.90076335877863,445.9633027522936,775.045871559633,0.091743119266055,0.0
1760027545.3906095,175,-0.4743296703296704,1.609846153846154,-191.082989010989,-5.870229007633588,9.763358778625957,120.90076335877863,445.9633027522936,775.045871559633,0.091743119266055,0.0
1760027545.4008958,176,-0.5030769230769231,1.7463956043956046,-213.1824395604396,17.580152671755727,125.06870229007632,122.85496183206106,352.0183486238532,798.5321100917431,0.091743119266055,0.0
1760027545.4111516,177,-0.5605714285714286,1.617032967032967,-191.1404835164835,41.03053435114504,54.7175572519084,122.85496183206106,352.0183486238532,798.5321100917431,0.091743119266055,0.0
1760027545.4215052,178,1.3654945054945056,0.0503076923076923,-205.88063736263737,25.396946564885496,7.816793893129771,124.80916030534353,375.5045871559633,728.0733944954129,0.091743119266055,0.0
1760027545.431846,179,12.76378021978022,-14.6610989010989,-82.74178021978022,0.0305343511450381,-0.4885496183206106,1.8396946564885497,-2440.091743119266,-164.4954128440367,1338.6238532110092,0.0
1760027545.4421368,180,2.062615384615385,58.87437362637363,-29.43,15.6793893129771,15.572519083969466,9.427480916030534,-1949.3577981651376,-587.2477064220184,328.8073394495413,0.0
1760027545.4524343,181,-62.439032967032965,-5.145758241758243,0.1221758241758241,2.1908396946564888,-119.206106870229,-31.259541984732824,188.6238532110092,187.06422018348624,113.21100917431193,0.0
1760027545.46273,182,-0.424021978021978,1.6673406593406594,-198.5285274725275,17.580152671755727,62.534351145038165,103.31297709923663,422.47706422018354,728.0733944954129,0.091743119266055,0.0
1760027545.4730923,183,-0.6036923076923078,1.7463956043956046,-176.38595604395604,9.763358778625957,85.98473282442748,122.85496183206106,445.9633027522936,540.1834862385322,0.091743119266055,0.0
1760027545.4834533,184,-0.5246373626373626,1.5810989010989014,-227.9154065934066,25.396946564885496,93.80152671755724,122.85496183206106,445.9633027522936,540.1834862385322,0.091743119266055,0.0
1760027545.4937766,185,-0.4815164835164835,1.724835164835165,-191.1836043956044,-13.687022900763358,-13.687022900763358,120.89312977099236,539.908256880734,681.1009174311927,0.091743119266055,0.0
1760027545.5040622,186,-0.5102637362637363,1.5954725274725277,-176.37158241758243,17.580152671755727,31.267175572519083,120.90076335877863,539.908256880734,681.1009174311927,0.091743119266055,0.0
1760027545.5143583,187,-0.6683736263736263,1.7823296703296705,-213.204,-21.50381679389313,111.38167938931298,126.76335877862596,375.5045871559633,775.045871559633,0.091743119266055,0.0
1760027545.5246449,188,-0.5246373626373626,1.6385934065934065,-198.4854065934066,1.9465648854961832,78.16793893129771,126.76335877862596,375.5045871559633,775.045871559633,0.091743119266055,0.0
1760027545.5349576,189,-0.5965054945054945,1.7104615384615385,-176.465010989011,9.763358778625957,46.90076335877863,99.40458015267176,469.4495412844037,657.6146788990826,0.091743119266055,0.0
1760027545.5452714,190,-0.4527692307692308,1.688901098901099,-220.64953846153847,-5.870229007633588,56.66412213740458,99.40458015267176,469.4495412844037,657.6146788990826,0.091743119266055,0.0
1760027545.5556324,191,-0.5677582417582419,1.688901098901099,-176.43626373626375,9.763358778625957,15.63358778625954,126.76335877862596,492.9357798165138,634.1284403669725,0.091743119266055,0.0
1760027545.5659144,192,-0.4815164835164835,1.617032967032967,-176.43626373626375,33.213740458015266,62.534351145038165,126.76335877862596,492.9357798165138,634.1284403669725,0.091743119266055,0.0
1760027545.5762217,193,-0.6036923076923078,1.6960879120879122,-169.08415384615384,33.213740458015266,117.25190839694656,120.90076335877863,516.4220183486239,704.5871559633028,0.091743119266055,0.0
1760027545.5865648,194,-0.5677582417582419,1.6745274725274726,-146.9775164835165,-21.50381679389313,72.29770992366412,120.90076335877863,516.4220183486239,704.5871559633028,0.091743119266055,0.0
1760027545.5969353,195,-0.5246373626373626,1.5810989010989014,-183.77400000000003,-29.3206106870229,80.1145038167939,132.6259541984733,422.47706422018354,610.6422018348624,0.091743119266055,0.0
1760027545.607259,196,-0.5102637362637363,1.6601538461538463,-198.4925934065934,-21.50381679389313,56.66412213740458,132.6259541984733,422.47706422018354,610.6422018348624,0.091743119266055,0.0
1760027545.6176145,197,1.3367472527472526,0.0143736263736263,-183.67338461538463,-21.50381679389313,33.213740458015266,97.45038167938932,516.4220183486239,798.5321100917431,0.091743119266055,0.0
1760027545.6279645,198,-0.4887032967032967,1.7176483516483516,-183.78837362637364,41.03053435114504,23.450381679389317,134.5801526717557,469.4495412844037,728.0733944954129,0.091743119266055,0.0
1760027545.63829,199,-0.574945054945055,1.8110769230769237,-220.5632967032967,-5.870229007633588,48.847328244274806,134.5801526717557,469.4495412844037,728.0733944954129,0.091743119266055,0.0
1760027545.648591,200,-0.4312087912087912,1.617032967032967,-176.4578241758242,1.9465648854961832,31.267175572519083,118.9465648854962,492.9357798165138,610.6422018348624,0.091743119266055,0.0
1760027545.6589098,201,-0.539010989010989,1.6673406593406594,-191.21235164835164,-37.13740458015267,64.48091603053435,118.9465648854962,492.9357798165138,610.6422018348624,0.091743119266055,0.0
1760027545.669236,202,-0.459956043956044,1.7104615384615385,-205.90938461538465,25.396946564885496,31.267175572519083,128.7175572519084,422.47706422018354,822.0183486238533,0.091743119266055,0.0
1760027545.6796007,203,-0.5533846153846155,1.7104615384615385,-191.11173626373625,-5.870229007633588,9.763358778625957,128.7175572519084,422.47706422018354,822.0183486238533,0.091743119266055,0.0
1760027545.6899664,204,-0.5030769230769231,1.5236043956043956,-124.88525274725276,1.9465648854961832,93.80152671755724,124.80916030534353,352.0183486238532,681.1009174311927,0.091743119266055,0.0
1760027545.7003136,205,-0.4958901098901099,1.6673406593406594,-191.03986813186813,56.66412213740458,-15.63358778625954,124.80152671755724,352.0183486238532,681.1009174311927,0.091743119266055,0.0
1760027545.7108488,206,-0.4815164835164835,1.609846153846154,-227.99446153846156,-21.50381679389313,17.580152671755727,116.99236641221374,398.99082568807336,681.1009174311927,0.091743119266055,0.0
1760027545.7212274,207,-0.4887032967032967,1.688901098901099,-176.3069010989011,-21.50381679389313,56.66412213740458,116.99236641221374,398.99082568807336,681.1009174311927,0.091743119266055,0.0
1760027545.7336433,208,1.2864395604395606,0.0,-198.42072527472527,9.763358778625957,62.534351145038165,126.76335877862596,539.908256880734,681.1009174311927,0.091743119266055,0.0
1760027545.744007,209,-0.3952747252747253,1.7392087912087917,-183.73087912087917,-44.954198473282446,33.213740458015266,126.76335877862596,539.908256880734,681.1009174311927,0.091743119266055,0.0
1760027545.7544026,210,-0.4743296703296704,1.6817142857142855,-205.8518901098901,25.396946564885496,78.16793893129771,115.0381679389313,445.9633027522936,751.559633027523,0.091743119266055,0.0
1760027545.7647922,211,-0.3880879120879121,1.7823296703296705,-213.2614945054945,17.580152671755727,23.450381679389317,115.0381679389313,445.9633027522936,751.559633027523,0.091743119266055,0.0
1760027545.775623,212,-0.4958901098901099,1.6601538461538463,-213.37648351648355,64.48091603053435,62.534351145038165,115.0381679389313,563.3944954128441,704.5871559633028,0.091743119266055,0.0
1760027545.7859373,213,-0.5030769230769231,1.724835164835165,-169.0625934065934,17.580152671755727,23.450381679389317,115.0381679389313,563.3944954128441,704.5871559633028,0.091743119266055,0.0
1760027545.7966626,214,-0.4383956043956044,1.6457802197802198,-213.2902417582418,9.763358778625957,54.7175572519084,118.9465648854962,398.99082568807336,704.5871559633028,0.091743119266055,0.0
1760027545.8070314,215,-0.4815164835164835,1.724835164835165,-176.3643956043956,17.580152671755727,109.4351145038168,118.9465648854962,398.99082568807336,704.5871559633028,0.091743119266055,0.0
1760027545.817617,216,-0.4743296703296704,1.6673406593406594,-146.99907692307693,48.847328244274806,70.35114503816794,128.7175572519084,398.99082568807336,751.559633027523,0.091743119266055,0.0
1760027545.8279266,217,-0.5461978021978022,1.7320219780219783,-191.09736263736264,-21.50381679389313,25.396946564885496,128.7175572519084,398.99082568807336,751.559633027523,0.091743119266055,0.0
1760027545.838703,218,-0.4815164835164835,1.6745274725274726,-161.68173626373627,-37.13740458015267,64.48091603053435,132.6259541984733,492.9357798165138,751.559633027523,0.091743119266055,0.0
1760027545.8490577,219,-0.4527692307692308,1.724835164835165,-183.7596263736264,17.580152671755727,23.450381679389317,132.6259541984733,492.9357798165138,751.559633027523,0.091743119266055,0.0
1760027545.8593645,220,-0.4168351648351648,1.7535824175824175,-176.5153186813187,17.580152671755727,78.16793893129771,124.80916030534353,422.47706422018354,775.045871559633,0.091743119266055,0.0
1760027545.8696692,221,-0.3809010989010989,1.6529670329670332,-176.50813186813187,41.03053435114504,62.534351145038165,124.80916030534353,422.47706422018354,775.045871559633,0.091743119266055,0.0
1760027545.8801038,222,-0.4096483516483516,1.7751428571428571,-183.7955604395605,17.580152671755727,62.534351145038165,130.67175572519085,469.4495412844037,728.0733944954129,0.091743119266055,0.0
1760027545.8926773,223,-0.5605714285714286,1.7320219780219783,-154.43742857142857,-13.687022900763358,95.74809160305344,130.67175572519085,469.4495412844037,728.0733944954129,0.091743119266055,0.0
1760027545.9046474,224,-0.4455824175824175,1.767956043956044,-161.68892307692306,-29.3206106870229,48.847328244274806,113.08396946564883,375.5045871559633,751.559633027523,0.091743119266055,0.0
1760027545.9149847,225,-0.4168351648351648,1.7463956043956046,-191.11892307692307,33.213740458015266,46.90076335877863,113.08396946564883,375.5045871559633,751.559633027523,0.091743119266055,0.0
1760027545.9256344,226,-0.5246373626373626,1.6960879120879122,-198.46384615384616,33.213740458015266,-15.63358778625954,115.03053435114504,539.908256880734,775.045871559633,0.091743119266055,0.0
1760027545.936001,227,-0.459956043956044,1.7104615384615385,-205.88063736263737,-21.50381679389313,48.847328244274806,115.0381679389313,539.908256880734,775.045871559633,0.091743119266055,0.0
1760027545.9463062,228,-0.539010989010989,1.6026593406593408,-191.11173626373625,-29.3206106870229,33.213740458015266,111.12977099236642,445.9633027522936,704.5871559633028,0.091743119266055,0.0
1760027545.956641,229,-0.539010989010989,1.6242197802197802,-191.1332967032967,48.847328244274806,46.90076335877863,111.12977099236642,445.9633027522936,704.5871559633028,0.091743119266055,0.0
1760027545.967009,230,-0.4815164835164835,1.6960879120879122,-183.77400000000003,-44.954198473282446,95.74809160305344,107.22137404580153,352.0183486238532,681.1009174311927,0.091743119266055,0.0
1760027545.9774575,231,-0.5461978021978022,1.6817142857142855,-139.5247912087912,48.847328244274806,85.98473282442748,107.22137404580153,352.0183486238532,681.1009174311927,0.091743119266055,0.0
1760027545.9878235,232,-0.5318241758241758,1.609846153846154,-191.10454945054943,-5.870229007633588,25.396946564885496,107.22137404580153,469.4495412844037,681.1009174311927,0.091743119266055,0.0
1760027545.998111,233,-0.4671428571428571,1.6960879120879122,-198.44947252747247,-5.870229007633588,41.03053435114504,107.22137404580153,469.4495412844037,681.1009174311927,0.091743119266055,0.0
1760027546.0084095,234,-0.4958901098901099,1.7104615384615385,-169.13446153846155,25.396946564885496,62.534351145038165,128.7175572519084,422.47706422018354,634.1284403669725,0.091743119266055,0.0
1760027546.018726,235,-0.5174505494505495,1.6457802197802198,-169.09134065934066,-13.687022900763358,48.847328244274806,128.7175572519084,422.47706422018354,634.1284403669725,0.091743119266055,0.0
1760027546.0289946,236,-0.4671428571428571,1.7320219780219783,-183.7021318681319,25.396946564885496,93.80152671755724,122.85496183206106,469.4495412844037,868.9908256880734,0.091743119266055,0.0
1760027546.039282,237,-0.4671428571428571,1.7104615384615385,228.3538021978022,48.847328244274806,85.98473282442748,122.85496183206106,469.4495412844037,868.9908256880734,0.091743119266055,0.0
1760027546.049699,238,-0.5677582417582419,1.6817142857142855,-183.77400000000003,17.580152671755727,109.4351145038168,124.80916030534353,610.3669724770642,704.5871559633028,0.091743119266055,0.0
1760027546.0601394,239,-0.459956043956044,1.6601538461538463,-183.80993406593407,95.74809160305344,46.90076335877863,124.80916030534353,610.3669724770642,704.5871559633028,0.091743119266055,0.0
1760027546.0704691,240,-0.5102637362637363,1.6817142857142855,-205.8303296703297,1.9465648854961832,54.7175572519084,118.9465648854962,328.5321100917431,775.045871559633,0.091743119266055,0.0
1760027546.0807946,241,-0.4312087912087912,1.6242197802197802,-183.7811868131868,-29.3206106870229,17.580152671755727,118.9465648854962,328.5321100917431,775.045871559633,0.091743119266055,0.0
1760027546.091192,242,-0.459956043956044,1.688901098901099,-132.20142857142858,-13.687022900763358,25.396946564885496,122.85496183206106,352.0183486238532,681.1009174311927,0.091743119266055,0.0
1760027546.101601,243,-0.5677582417582419,1.6457802197802198,-205.86626373626376,41.03053435114504,7.816793893129771,122.85496183206106,516.4220183486239,657.6146788990826,0.091743119266055,0.0
1760027546.1119986,244,-0.5965054945054945,1.566725274725275,-191.0326813186813,-13.687022900763358,72.29770992366412,122.85496183206106,516.4220183486239,657.6146788990826,0.091743119266055,0.0
1760027546.122347,245,-0.424021978021978,1.7823296703296705,-176.4578241758242,1.9465648854961832,-15.63358778625954,118.93893129770991,469.4495412844037,728.0733944954129,0.091743119266055,0.0
1760027546.1326642,246,-0.3737142857142858,1.6673406593406594,-198.53571428571428,25.396946564885496,23.450381679389317,118.9465648854962,469.4495412844037,728.0733944954129,0.091743119266055,0.0
1760027546.1432538,247,-0.459956043956044,1.688901098901099,-235.4184395604396,-37.13740458015267,64.48091603053435,124.80916030534353,398.99082568807336,798.5321100917431,0.091743119266055,0.0
1760027546.1536496,248,-0.4743296703296704,1.7607692307692309,-169.1129010989011,48.847328244274806,62.534351145038165,124.80916030534353,398.99082568807336,798.5321100917431,0.091743119266055,0.0
1760027546.1639304,249,-0.5102637362637363,1.6385934065934065,-169.07696703296705,-5.870229007633588,17.580152671755727,116.99236641221374,422.47706422018354,775.045871559633,0.091743119266055,0.0
1760027546.174207,250,-0.5533846153846155,1.6960879120879122,-191.2195384615385,1.9465648854961832,78.16793893129771,116.99236641221374,422.47706422018354,775.045871559633,0.091743119266055,0.0
1760027546.184503,251,-0.5246373626373626,1.6457802197802198,-198.44947252747247,-29.3206106870229,25.396946564885496,122.85496183206106,398.99082568807336,493.2110091743119,0.091743119266055,0.0
1760027546.1948102,252,-0.5461978021978022,1.5810989010989014,-191.1404835164835,9.763358778625957,31.267175572519083,122.85496183206106,398.99082568807336,493.2110091743119,0.091743119266055,0.0
1760027546.2050824,253,-0.4671428571428571,1.7535824175824175,-191.09736263736264,-21.50381679389313,56.66412213740458,116.99236641221374,492.9357798165138,587.1559633027523,0.091743119266055,0.0
1760027546.215368,254,-0.5174505494505495,1.6601538461538463,-227.90821978021975,-13.687022900763358,56.66412213740458,116.99236641221374,492.9357798165138,587.1559633027523,0.091743119266055,0.0
1760027546.225752,255,-0.4455824175824175,1.688901098901099,-213.2614945054945,-21.50381679389313,17.580152671755727,116.99236641221374,445.9633027522936,704.5871559633028,0.091743119266055,0.0
1760027546.2361257,256,-0.4024615384615385,1.7176483516483516,-213.0387032967033,33.213740458015266,15.63358778625954,116.99236641221374,445.9633027522936,704.5871559633028,0.091743119266055,0.0
1760027546.2465286,257,-0.5030769230769231,1.6817142857142855,-227.90103296703296,-21.50381679389313,23.450381679389317,113.08396946564883,305.045871559633,634.1284403669725,0.091743119266055,0.0
1760027546.2570536,258,-0.4383956043956044,1.7751428571428571,-161.6458021978022,17.580152671755727,62.534351145038165,113.08396946564883,305.045871559633,634.1284403669725,0.091743119266055,0.0
1760027546.2673898,259,1.3223736263736263,0.0,-191.11892307692307,9.763358778625957,31.267175572519083,124.80916030534353,445.9633027522936,681.1009174311927,0.091743119266055,0.0
1760027546.277735,260,-0.5461978021978022,1.6457802197802198,-191.1332967032967,9.763358778625957,39.083969465648856,124.80916030534353,445.9633027522936,681.1009174311927,0.091743119266055,0.0
1760027546.2879994,261,-0.6036923076923078,1.631406593406593,-227.88665934065932,-29.3206106870229,48.847328244274806,120.90076335877863,422.47706422018354,587.1559633027523,0.091743119266055,0.0
1760027546.2982814,262,-0.5605714285714286,1.7176483516483516,-183.7021318681319,56.66412213740458,23.450381679389317,120.90076335877863,422.47706422018354,587.1559633027523,0.091743119266055,0.0
1760027546.3086212,263,-0.3449670329670329,1.566725274725275,-146.98470329670332,-5.870229007633588,87.93129770992367,124.80916030534353,445.9633027522936,634.1284403669725,0.091743119266055,0.0
1760027546.3189206,264,-0.5174505494505495,1.6601538461538463,-154.35837362637363,56.66412213740458,54.7175572519084,124.80916030534353,445.9633027522936,634.1284403669725,0.091743119266055,0.0
1760027546.3291838,265,-0.4958901098901099,1.8110769230769237,-139.61103296703297,1.9465648854961832,-7.816793893129771,122.8473282442748,610.3669724770642,563.6697247706422,0.091743119266055,0.0
1760027546.3394625,266,-0.4096483516483516,1.6673406593406594,-169.01228571428572,72.29770992366412,39.083969465648856,122.85496183206106,610.3669724770642,563.6697247706422,0.091743119266055,0.0
1760027546.3497944,267,-0.5461978021978022,1.6960879120879122,-205.8303296703297,-21.50381679389313,41.03053435114504,124.80916030534353,398.99082568807336,657.6146788990826,0.091743119266055,0.0
1760027546.36014,268,-0.4887032967032967,1.6242197802197802,-139.56791208791208,-60.58778625954199,64.48091603053435,124.80916030534353,398.99082568807336,657.6146788990826,0.091743119266055,0.0
1760027546.370414,269,-0.4887032967032967,1.6673406593406594,-191.162043956044,25.396946564885496,78.16793893129771,126.76335877862596,352.0183486238532,798.5321100917431,0.091743119266055,0.0
1760027546.3806932,270,-0.4958901098901099,1.7535824175824175,-154.37274725274725,17.580152671755727,15.63358778625954,126.76335877862596,352.0183486238532,798.5321100917431,0.091743119266055,0.0
1760027546.3910353,271,-0.4024615384615385,1.6745274725274726,-191.1764175824176,-5.870229007633588,1.9465648854961832,120.90076335877863,539.908256880734,728.0733944954129,0.091743119266055,0.0
1760027546.4014268,272,-0.4168351648351648,1.7967032967032968,-183.7668131868132,9.763358778625957,7.816793893129771,120.90076335877863,539.908256880734,728.0733944954129,0.091743119266055,0.0
1760027546.4117436,273,-0.5030769230769231,1.6601538461538463,-161.67454945054945,56.66412213740458,62.534351145038165,130.67175572519085,352.0183486238532,704.5871559633028,0.091743119266055,0.0
1760027546.4220405,274,-0.4958901098901099,1.7607692307692309,-183.83149450549453,9.763358778625957,39.083969465648856,130.67175572519085,352.0183486238532,704.5871559633028,0.091743119266055,0.0
1760027546.4323738,275,-0.4383956043956044,1.7967032967032968,-205.7872087912088,-13.687022900763358,25.396946564885496,124.80916030534353,469.4495412844037,610.6422018348624,0.091743119266055,0.0
1760027546.4426656,276,-0.424021978021978,1.688901098901099,-205.82314285714287,41.03053435114504,31.267175572519083,124.80916030534353,469.4495412844037,610.6422018348624,0.091743119266055,0.0
1760027546.452935,277,-0.5246373626373626,1.7392087912087917,-198.5429010989011,41.03053435114504,31.267175572519083,116.99236641221374,422.47706422018354,634.1284403669725,0.091743119266055,0.0
1760027546.463232,278,-0.459956043956044,1.6745274725274726,-183.738065934066,33.213740458015266,-15.63358778625954,116.98473282442748,422.47706422018354,634.1284403669725,0.091743119266055,0.0
1760027546.4735494,279,-0.5030769230769231,1.724835164835165,-198.4422857142857,-13.687022900763358,95.74809160305344,136.53435114503816,539.908256880734,657.6146788990826,0.091743119266055,0.0
1760027546.483951,280,-0.5318241758241758,1.6817142857142855,-176.50094505494508,33.213740458015266,46.90076335877863,136.53435114503816,539.908256880734,657.6146788990826,0.091743119266055,0.0
1760027546.494301,281,-0.5246373626373626,1.6817142857142855,-213.2543076923077,-5.870229007633588,48.847328244274806,124.80916030534353,375.5045871559633,563.6697247706422,0.091743119266055,0.0
1760027546.5046625,282,-0.5677582417582419,1.566725274725275,-183.71650549450555,1.9465648854961832,70.35114503816794,124.80916030534353,375.5045871559633,563.6697247706422,0.091743119266055,0.0
1760027546.5150678,283,-0.3809010989010989,1.688901098901099,-154.40868131868132,33.213740458015266,62.534351145038165,107.22137404580153,422.47706422018354,728.0733944954129,0.091743119266055,0.0
1760027546.5254445,284,-0.5965054945054945,1.7392087912087917,-161.68892307692306,1.9465648854961832,31.267175572519083,107.22137404580153,422.47706422018354,728.0733944954129,0.091743119266055,0.0
1760027546.5357857,285,-0.5030769230769231,1.724835164835165,-124.914,-21.50381679389313,33.213740458015266,113.08396946564883,281.5596330275229,751.559633027523,0.091743119266055,0.0
1760027546.546169,286,-0.4743296703296704,1.6242197802197802,-183.69494505494507,1.9465648854961832,125.06870229007632,113.08396946564883,281.5596330275229,751.559633027523,0.091743119266055,0.0
1760027546.5566,287,-0.3305934065934066,1.6242197802197802,-183.7524395604396,-5.870229007633588,25.396946564885496,130.67175572519085,352.0183486238532,728.0733944954129,0.091743119266055,0.0
1760027546.5669346,288,-0.5533846153846155,1.7967032967032968,-205.8518901098901,25.396946564885496,54.7175572519084,130.67175572519085,398.99082568807336,681.1009174311927,0.091743119266055,0.0
1760027546.5772817,289,-0.459956043956044,1.724835164835165,-198.47103296703295,17.580152671755727,54.7175572519084,130.67175572519085,398.99082568807336,681.1009174311927,0.091743119266055,0.0
1760027546.5876412,290,-0.5677582417582419,1.6673406593406594,-220.64235164835165,48.847328244274806,23.450381679389317,136.53435114503816,610.3669724770642,775.045871559633,0.091743119266055,0.0
1760027546.597967,291,-0.4024615384615385,1.6385934065934065,-176.37158241758243,-5.870229007633588,25.396946564885496,136.53435114503816,610.3669724770642,775.045871559633,0.091743119266055,0.0
1760027546.6082363,292,-0.459956043956044,1.6673406593406594,-169.0554065934066,33.213740458015266,31.267175572519083,115.0381679389313,398.99082568807336,751.559633027523,0.091743119266055,0.0
1760027546.618527,293,-0.4096483516483516,1.5810989010989014,-198.49978021978023,33.213740458015266,62.534351145038165,115.0381679389313,398.99082568807336,751.559633027523,0.091743119266055,0.0
1760027546.6288233,294,-0.5605714285714286,1.7463956043956046,-220.6136043956044,-5.870229007633588,25.396946564885496,122.85496183206106,352.0183486238532,587.1559633027523,0.091743119266055,0.0
1760027546.6391542,295,-0.6108791208791209,1.6385934065934065,-183.9177362637363,-13.687022900763358,41.03053435114504,122.85496183206106,352.0183486238532,587.1559633027523,0.091743119266055,0.0
1760027546.649447,296,-0.4527692307692308,1.631406593406593,-154.32962637362638,9.763358778625957,23.450381679389317,134.5801526717557,469.4495412844037,728.0733944954129,0.091743119266055,0.0
1760027546.659736,297,-0.5533846153846155,1.6817142857142855,-146.98470329670332,33.213740458015266,15.63358778625954,134.5801526717557,469.4495412844037,728.0733944954129,0.091743119266055,0.0
1760027546.6700838,298,-0.5893186813186814,1.6242197802197802,-205.80876923076923,41.03053435114504,46.90076335877863,132.6259541984733,375.5045871559633,751.559633027523,0.091743119266055,0.0
1760027546.680547,299,-0.3809010989010989,1.6745274725274726,-176.4075164835165,17.580152671755727,31.267175572519083,132.6259541984733,375.5045871559633,751.559633027523,0.091743119266055,0.0
1760027546.6908908,300,-0.6180659340659341,1.5810989010989014,-132.29485714285715,17.580152671755727,23.450381679389317,107.22137404580153,422.47706422018354,704.5871559633028,0.091743119266055,0.0
1760027546.7012322,301,-0.574945054945055,1.7392087912087917,-161.63142857142856,25.396946564885496,-23.450381679389317,107.22137404580153,422.47706422018354,704.5871559633028,0.091743119266055,0.0
1760027546.7115867,302,-0.574945054945055,1.6673406593406594,-169.1057142857143,33.213740458015266,31.267175572519083,118.9465648854962,328.5321100917431,681.1009174311927,0.091743119266055,0.0
1760027546.721905,303,-0.459956043956044,1.7320219780219783,-220.6064175824176,-5.870229007633588,56.66412213740458,118.9465648854962,328.5321100917431,681.1009174311927,0.091743119266055,0.0
1760027546.7322023,304,-0.5246373626373626,1.6745274725274726,-139.64696703296704,41.03053435114504,39.083969465648856,120.90076335877863,445.9633027522936,657.6146788990826,0.091743119266055,0.0
1760027546.7425144,305,-0.4527692307692308,1.6026593406593408,-176.42189010989011,9.763358778625957,0.0,120.90076335877863,445.9633027522936,657.6146788990826,0.091743119266055,0.0
1760027546.7528102,306,-0.539010989010989,1.566725274725275,-169.04103296703298,-29.3206106870229,41.03053435114504,122.85496183206106,305.045871559633,798.5321100917431,0.091743119266055,0.0
1760027546.7631643,307,-0.3593406593406594,1.7751428571428571,-213.21118681318683,-5.870229007633588,33.213740458015266,122.85496183206106,305.045871559633,798.5321100917431,0.091743119266055,0.0
1760027546.773556,308,-0.5102637362637363,1.7320219780219783,-161.6458021978022,1.9465648854961832,7.816793893129771,124.80916030534353,586.8807339449542,751.559633027523,0.091743119266055,0.0
1760027546.783918,309,-0.5102637362637363,1.617032967032967,-146.84815384615385,-13.687022900763358,25.396946564885496,124.80916030534353,586.8807339449542,751.559633027523,0.091743119266055,0.0
1760027546.7942822,310,-0.4455824175824175,1.7823296703296705,-154.33681318681317,41.03053435114504,101.61832061068702,120.90076335877863,328.5321100917431,704.5871559633028,0.091743119266055,0.0
1760027546.8046298,311,-0.4096483516483516,1.6673406593406594,-183.80993406593407,56.66412213740458,7.816793893129771,120.90076335877863,328.5321100917431,704.5871559633028,0.091743119266055,0.0
1760027546.814932,312,-0.4383956043956044,1.6601538461538463,-161.68892307692306,33.213740458015266,39.083969465648856,118.9465648854962,422.47706422018354,634.1284403669725,0.091743119266055,0.0
1760027546.8252423,313,-0.3809010989010989,1.6673406593406594,-169.02665934065934,80.1145038167939,62.534351145038165,118.9465648854962,422.47706422018354,634.1284403669725,0.091743119266055,0.0
1760027546.8356955,314,-0.4887032967032967,1.6457802197802198,-183.7668131868132,33.213740458015266,31.267175572519083,120.90076335877863,352.0183486238532,892.4770642201836,0.091743119266055,0.0
1760027546.8460715,315,-0.4527692307692308,1.6745274725274726,-213.2327472527473,9.763358778625957,7.816793893129771,120.90076335877863,352.0183486238532,892.4770642201836,0.091743119266055,0.0
1760027546.8566198,316,-0.4383956043956044,1.7392087912087917,-213.1752527472528,33.213740458015266,46.90076335877863,126.76335877862596,375.5045871559633,728.0733944954129,0.091743119266055,0.0
1760027546.8669477,317,-0.5030769230769231,1.6529670329670332,-191.162043956044,9.763358778625957,-7.816793893129771,126.7557251908397,375.5045871559633,728.0733944954129,0.091743119266055,0.0
1760027546.8773336,318,-0.5174505494505495,1.7176483516483516,-161.652989010989,-13.687022900763358,1.9465648854961832,116.99236641221374,539.908256880734,657.6146788990826,0.091743119266055,0.0
1760027546.887669,319,-0.6036923076923078,1.7176483516483516,-213.1465054945055,-44.954198473282446,72.29770992366412,116.99236641221374,539.908256880734,657.6146788990826,0.091743119266055,0.0
1760027546.8979354,320,-0.5174505494505495,1.7104615384615385,-220.50580219780215,25.396946564885496,39.083969465648856,130.67175572519085,375.5045871559633,704.5871559633028,0.091743119266055,0.0
1760027546.9082105,321,-0.5318241758241758,1.6242197802197802,-147.0493846153846,9.763358778625957,-7.816793893129771,130.66412213740458,375.5045871559633,704.5871559633028,0.091743119266055,0.0
1760027546.9185543,322,-0.4887032967032967,1.7895164835164834,-198.47821978021975,1.9465648854961832,15.63358778625954,124.80916030534353,422.47706422018354,775.045871559633,0.091743119266055,0.0
1760027546.928908,323,-0.6108791208791209,1.7392087912087917,-220.52017582417585,33.213740458015266,70.35114503816794,124.80916030534353,422.47706422018354,775.045871559633,0.091743119266055,0.0
1760027546.9392712,324,-0.4671428571428571,1.6673406593406594,-183.7811868131868,-21.50381679389313,-5.870229007633588,97.44274809160304,539.908256880734,610.6422018348624,0.091743119266055,0.0
1760027546.9496324,325,-0.3880879120879121,1.6601538461538463,-169.09852747252748,-21.50381679389313,41.03053435114504,97.45038167938932,539.908256880734,610.6422018348624,0.091743119266055,0.0
1760027546.9601166,326,-0.4743296703296704,1.7176483516483516,-183.7811868131868,-5.870229007633588,41.03053435114504,126.76335877862596,305.045871559633,728.0733944954129,0.091743119266055,0.0
1760027546.9705148,327,1.3726813186813187,0.0,-183.7524395604396,64.48091603053435,-31.267175572519083,126.7557251908397,305.045871559633,728.0733944954129,0.091743119266055,0.0
1760027546.9808276,328,-0.4743296703296704,1.7032747252747251,-169.1129010989011,-13.687022900763358,41.03053435114504,115.0381679389313,352.0183486238532,798.5321100917431,0.091743119266055,0.0
1760027546.9911246,329,-0.5318241758241758,1.688901098901099,-198.47821978021975,41.03053435114504,70.35114503816794,115.0381679389313,352.0183486238532,798.5321100917431,0.091743119266055,0.0
1760027547.0014472,330,-0.4168351648351648,1.7176483516483516,-176.48657142857144,-29.3206106870229,-44.954198473282446,124.80152671755724,422.47706422018354,798.5321100917431,0.091743119266055,0.0
1760027547.0117466,331,-0.459956043956044,1.6529670329670332,-213.204,9.763358778625957,15.63358778625954,132.6259541984733,375.5045871559633,657.6146788990826,0.091743119266055,0.0
1760027547.022025,332,-0.5605714285714286,1.6385934065934065,-198.56446153846156,33.213740458015266,31.267175572519083,132.6259541984733,375.5045871559633,657.6146788990826,0.091743119266055,0.0
1760027547.0323064,333,-0.5893186813186814,1.573912087912088,-176.37876923076925,25.396946564885496,54.7175572519084,122.85496183206106,398.99082568807336,728.0733944954129,0.091743119266055,0.0
1760027547.0426562,334,-0.5030769230769231,1.7392087912087917,-183.80274725274728,48.847328244274806,31.267175572519083,122.85496183206106,398.99082568807336,728.0733944954129,0.091743119266055,0.0
1760027547.0530307,335,-0.4671428571428571,1.6529670329670332,-191.1836043956044,-21.50381679389313,33.213740458015266,126.76335877862596,469.4495412844037,704.5871559633028,0.091743119266055,0.0
1760027547.0633807,336,-0.574945054945055,1.6960879120879122,-183.78837362637364,-13.687022900763358,48.847328244274806,126.76335877862596,469.4495412844037,704.5871559633028,0.091743119266055,0.0
1760027547.073751,337,-0.5030769230769231,1.7032747252747251,-220.5561098901099,-13.687022900763358,1.9465648854961832,120.90076335877863,469.4495412844037,751.559633027523,0.091743119266055,0.0
1760027547.084109,338,-0.4527692307692308,1.6673406593406594,-176.38595604395604,41.03053435114504,39.083969465648856,120.90076335877863,469.4495412844037,751.559633027523,0.091743119266055,0.0
1760027547.0945003,339,-0.4671428571428571,1.6960879120879122,-205.81595604395605,17.580152671755727,70.35114503816794,116.99236641221374,563.3944954128441,728.0733944954129,0.091743119266055,0.0
1760027547.1048472,340,-0.3449670329670329,1.631406593406593,-147.02063736263736,72.29770992366412,85.98473282442748,116.99236641221374,563.3944954128441,728.0733944954129,0.091743119266055,0.0
1760027547.115104,341,-28.69694505494505,14.7689010989011,14.6610989010989,9.419847328244275,-123.1145038167939,-37.13740458015267,258.34862385321105,-9.174311926605505,-0.3669724770642202,0.0
1760027547.1254067,342,2.062615384615385,-171.10364835164833,-28.69694505494505,15.67175572519084,15.580152671755725,9.419847328244275,-1620.5504587155965,-540.2752293577981,704.5871559633028,0.0
1760027547.13573,343,-62.49652747252747,-5.030769230769231,0.1365494505494505,2.1908396946564888,136.793893129771,-30.47328244274809,188.6238532110092,187.06422018348624,113.21100917431193,0.0
1760027547.1461089,344,-0.4312087912087912,1.7176483516483516,-176.44345054945055,25.396946564885496,0.0,138.4885496183206,563.3944954128441,775.045871559633,0.091743119266055,0.0
1760027547.1565378,345,-0.4671428571428571,1.6745274725274726,-176.37876923076925,25.396946564885496,70.35114503816794,138.4885496183206,563.3944954128441,775.045871559633,0.091743119266055,0.0
1760027547.166858,346,-0.4743296703296704,1.6026593406593408,-191.06861538461536,33.213740458015266,7.816793893129771,120.90076335877863,375.5045871559633,657.6146788990826,0.091743119266055,0.0
1760027547.17726,347,-0.5533846153846155,1.5954725274725277,-205.9021978021978,17.580152671755727,0.0,120.90076335877863,375.5045871559633,657.6146788990826,0.091743119266055,0.0
1760027547.187595,348,-0.5246373626373626,1.6673406593406594,-205.86626373626376,9.763358778625957,46.90076335877863,115.0381679389313,305.045871559633,751.559633027523,0.091743119266055,0.0
1760027547.1979003,349,-0.4168351648351648,1.7032747252747251,-139.61103296703297,64.48091603053435,39.083969465648856,115.0381679389313,305.045871559633,751.559633027523,0.091743119266055,0.0
1760027547.2082286,350,-0.4168351648351648,1.7176483516483516,-146.9918901098901,17.580152671755727,15.63358778625954,132.6259541984733,422.47706422018354,751.559633027523,0.091743119266055,0.0
1760027547.2185566,351,-0.4671428571428571,1.6601538461538463,-176.465010989011,33.213740458015266,93.80152671755724,132.6259541984733,422.47706422018354,751.559633027523,0.091743119266055,0.0
1760027547.2289357,352,-0.4383956043956044,1.7607692307692309,-198.4063516483517,56.66412213740458,15.63358778625954,120.90076335877863,445.9633027522936,775.045871559633,0.091743119266055,0.0
1760027547.2393386,353,-0.4168351648351648,1.7392087912087917,-132.23017582417583,25.396946564885496,39.083969465648856,120.90076335877863,445.9633027522936,775.045871559633,0.091743119266055,0.0
1760027547.2498002,354,-0.3305934065934066,1.6960879120879122,-161.67454945054945,64.48091603053435,54.7175572519084,116.99236641221374,398.99082568807336,775.045871559633,0.091743119266055,0.0
1760027547.260207,355,-0.4671428571428571,1.688901098901099,-169.0625934065934,-44.954198473282446,48.847328244274806,116.99236641221374,398.99082568807336,775.045871559633,0.091743119266055,0.0
1760027547.270541,356,-0.5030769230769231,1.7535824175824175,-169.08415384615384,9.763358778625957,15.63358778625954,124.80916030534353,445.9633027522936,657.6146788990826,0.091743119266055,0.0
1760027547.2808228,357,-0.3880879120879121,1.6817142857142855,-176.4578241758242,17.580152671755727,62.534351145038165,124.80916030534353,445.9633027522936,657.6146788990826,0.091743119266055,0.0
1760027547.2911303,358,-0.5965054945054945,1.6745274725274726,-205.87345054945052,-13.687022900763358,111.38167938931298,116.99236641221374,492.9357798165138,704.5871559633028,0.091743119266055,0.0
1760027547.301442,359,-0.4743296703296704,1.6745274725274726,220.90826373626376,48.847328244274806,93.80152671755724,116.99236641221374,492.9357798165138,704.5871559633028,0.091743119266055,0.0
1760027547.3117986,360,-0.4743296703296704,1.6673406593406594,-198.52134065934067,56.66412213740458,54.7175572519084,113.08396946564883,539.908256880734,775.045871559633,0.091743119266055,0.0
1760027547.3221643,361,-0.4887032967032967,1.7320219780219783,-139.62540659340658,-5.870229007633588,48.847328244274806,113.08396946564883,539.908256880734,775.045871559633,0.091743119266055,0.0
1760027547.3325434,362,-0.4887032967032967,1.6745274725274726,-213.1752527472528,41.03053435114504,7.816793893129771,120.90076335877863,516.4220183486239,822.0183486238533,0.091743119266055,0.0
1760027547.3430011,363,-0.3521538461538461,1.5954725274725277,-169.1200879120879,1.9465648854961832,31.267175572519083,120.90076335877863,516.4220183486239,822.0183486238533,0.091743119266055,0.0
1760027547.3533802,364,-0.4168351648351648,1.537978021978022,-176.465010989011,9.763358778625957,31.267175572519083,126.76335877862596,469.4495412844037,728.0733944954129,0.091743119266055,0.0
1760027547.3637671,365,-0.574945054945055,1.7823296703296705,-205.88063736263737,-13.687022900763358,64.48091603053435,126.76335877862596,469.4495412844037,728.0733944954129,0.091743119266055,0.0
1760027547.3741562,366,-0.4383956043956044,1.7463956043956046,-198.53571428571428,17.580152671755727,0.0,122.85496183206106,469.4495412844037,657.6146788990826,0.091743119266055,0.0
1760027547.3845212,367,-0.4671428571428571,1.566725274725275,-161.83265934065932,-21.50381679389313,48.847328244274806,122.85496183206106,469.4495412844037,657.6146788990826,0.091743119266055,0.0
1760027547.3948348,368,-0.4743296703296704,1.6529670329670332,-176.44345054945055,1.9465648854961832,39.083969465648856,113.08396946564883,328.5321100917431,681.1009174311927,0.091743119266055,0.0
1760027547.4051511,369,-0.3952747252747253,1.6673406593406594,-176.38595604395604,-13.687022900763358,56.66412213740458,113.08396946564883,328.5321100917431,681.1009174311927,0.091743119266055,0.0
1760027547.415551,370,-0.4455824175824175,1.688901098901099,-205.75127472527475,33.213740458015266,23.450381679389317,124.80916030534353,469.4495412844037,657.6146788990826,0.091743119266055,0.0
1760027547.4258676,371,-0.4671428571428571,1.6960879120879122,-191.11892307692307,17.580152671755727,70.35114503816794,124.80916030534353,469.4495412844037,657.6146788990826,0.091743119266055,0.0
1760027547.4361968,372,-0.574945054945055,1.6960879120879122,-124.87087912087912,41.03053435114504,-7.816793893129771,126.7557251908397,375.5045871559633,681.1009174311927,0.091743119266055,0.0
1760027547.446564,373,-0.5102637362637363,1.6745274725274726,-146.920021978022,56.66412213740458,70.35114503816794,126.76335877862596,375.5045871559633,681.1009174311927,0.091743119266055,0.0
1760027547.4569087,374,-0.6036923076923078,1.617032967032967,-205.86626373626376,25.396946564885496,7.816793893129771,124.80916030534353,469.4495412844037,657.6146788990826,0.091743119266055,0.0
1760027547.4672651,375,-0.5461978021978022,1.6242197802197802,-161.68173626373627,1.9465648854961832,23.450381679389317,124.80916030534353,469.4495412844037,657.6146788990826,0.091743119266055,0.0
1760027547.4776175,376,-0.5533846153846155,1.6601538461538463,-154.18589010989012,-13.687022900763358,111.38167938931298,115.0381679389313,398.99082568807336,751.559633027523,0.091743119266055,0.0
1760027547.488014,377,-0.5174505494505495,1.7535824175824175,-235.25314285714288,-21.50381679389313,-5.870229007633588,115.03053435114504,398.99082568807336,751.559633027523,0.091743119266055,0.0
1760027547.4983647,378,-0.424021978021978,1.7607692307692309,-161.68892307692306,56.66412213740458,62.534351145038165,120.90076335877863,727.7981651376147,728.0733944954129,0.091743119266055,0.0
1760027547.5086238,379,-0.5533846153846155,1.5810989010989014,-146.95595604395606,9.763358778625957,70.35114503816794,124.80916030534353,469.4495412844037,775.045871559633,0.091743119266055,0.0
1760027547.5188987,380,-0.5174505494505495,1.7320219780219783,-220.64235164835165,25.396946564885496,23.450381679389317,124.80916030534353,469.4495412844037,775.045871559633,0.091743119266055,0.0
1760027547.529225,381,-0.5030769230769231,1.6242197802197802,-220.49142857142857,56.66412213740458,46.90076335877863,122.85496183206106,610.3669724770642,634.1284403669725,0.091743119266055,0.0
1760027547.5395734,382,-0.5174505494505495,1.6960879120879122,-169.07696703296705,-37.13740458015267,72.29770992366412,122.85496183206106,610.3669724770642,634.1284403669725,0.091743119266055,0.0
1760027547.5498736,383,-0.5893186813186814,1.5164175824175825,-191.14767032967032,56.66412213740458,46.90076335877863,122.85496183206106,492.9357798165138,704.5871559633028,0.091743119266055,0.0
1760027547.5601916,384,-0.6899340659340659,1.6529670329670332,-176.47938461538462,17.580152671755727,-15.63358778625954,122.8473282442748,492.9357798165138,704.5871559633028,0.091743119266055,0.0
1760027547.5705144,385,-0.4958901098901099,1.6457802197802198,-176.40032967032968,33.213740458015266,39.083969465648856,113.08396946564883,445.9633027522936,681.1009174311927,0.091743119266055,0.0
1760027547.580833,386,-0.5174505494505495,1.6026593406593408,-132.18705494505494,-52.770992366412216,95.74809160305344,113.08396946564883,445.9633027522936,681.1009174311927,0.091743119266055,0.0
1760027547.5911088,387,-0.5174505494505495,1.7535824175824175,-205.88063736263737,25.396946564885496,15.63358778625954,115.0381679389313,445.9633027522936,704.5871559633028,0.091743119266055,0.0
1760027547.6014118,388,-0.6180659340659341,1.5954725274725277,-169.04821978021977,-5.870229007633588,87.93129770992367,115.0381679389313,445.9633027522936,704.5871559633028,0.091743119266055,0.0
1760027547.611791,389,-0.5318241758241758,1.6960879120879122,-176.39314285714286,-52.770992366412216,132.8854961832061,109.17557251908396,492.9357798165138,681.1009174311927,0.091743119266055,0.0
1760027547.6222007,390,-0.4383956043956044,1.724835164835165,-139.56072527472529,48.847328244274806,46.90076335877863,109.17557251908396,492.9357798165138,681.1009174311927,0.091743119266055,0.0
1760027547.63254,391,-0.5246373626373626,1.6242197802197802,-183.78837362637364,48.847328244274806,23.450381679389317,118.9465648854962,563.3944954128441,681.1009174311927,0.091743119266055,0.0
1760027547.6428998,392,-0.4743296703296704,1.6385934065934065,-154.27931868131867,48.847328244274806,39.083969465648856,118.9465648854962,563.3944954128441,681.1009174311927,0.091743119266055,0.0
1760027547.6532662,393,-0.6252527472527473,1.7392087912087917,-139.64696703296704,33.213740458015266,23.450381679389317,126.76335877862596,492.9357798165138,822.0183486238533,0.091743119266055,0.0
1760027547.66364,394,-0.574945054945055,1.7895164835164834,-176.3572087912088,1.9465648854961832,23.450381679389317,126.76335877862596,492.9357798165138,822.0183486238533,0.091743119266055,0.0
1760027547.673965,395,-0.5030769230769231,1.5451648351648353,-205.80158241758244,25.396946564885496,-7.816793893129771,120.89312977099236,445.9633027522936,704.5871559633028,0.091743119266055,0.0
1760027547.684266,396,-0.5461978021978022,1.6529670329670332,-183.88180219780224,33.213740458015266,54.7175572519084,120.90076335877863,445.9633027522936,704.5871559633028,0.091743119266055,0.0
1760027547.6946118,397,-0.4527692307692308,1.6457802197802198,-169.14164835164834,-21.50381679389313,33.213740458015266,124.80916030534353,539.908256880734,728.0733944954129,0.091743119266055,0.0
1760027547.7049336,398,-0.4527692307692308,1.609846153846154,-139.54635164835165,33.213740458015266,7.816793893129771,124.80916030534353,539.908256880734,728.0733944954129,0.091743119266055,0.0
1760027547.715217,399,-0.4312087912087912,1.7751428571428571,-139.5750989010989,-5.870229007633588,41.03053435114504,120.90076335877863,445.9633027522936,587.1559633027523,0.091743119266055,0.0
1760027547.7255228,400,-0.424021978021978,1.5882857142857143,-161.75360439560438,72.29770992366412,62.534351145038165,120.90076335877863,445.9633027522936,587.1559633027523,0.091743119266055,0.0
1760027547.7358675,401,-0.4887032967032967,1.6745274725274726,-169.1129010989011,-13.687022900763358,33.213740458015266,115.0381679389313,469.4495412844037,681.1009174311927,0.091743119266055,0.0
1760027547.7462084,402,-0.4743296703296704,1.7104615384615385,-205.8518901098901,9.763358778625957,62.534351145038165,115.0381679389313,469.4495412844037,681.1009174311927,0.091743119266055,0.0
1760027547.756541,403,-0.5174505494505495,1.7392087912087917,-191.26265934065933,56.66412213740458,46.90076335877863,107.22137404580153,422.47706422018354,681.1009174311927,0.091743119266055,0.0
1760027547.7669,404,-0.4312087912087912,1.7607692307692309,-154.40868131868132,-13.687022900763358,-21.50381679389313,107.21374045801528,422.47706422018354,681.1009174311927,0.091743119266055,0.0
1760027547.7772503,405,-0.4815164835164835,1.688901098901099,-176.34283516483518,48.847328244274806,93.80152671755724,130.67175572519085,657.3394495412844,681.1009174311927,0.091743119266055,0.0
1760027547.7875557,406,-0.6036923076923078,1.6960879120879122,-191.2195384615385,41.03053435114504,54.7175572519084,130.67175572519085,657.3394495412844,681.1009174311927,0.091743119266055,0.0
1760027547.7978444,407,-0.5533846153846155,1.7176483516483516,-176.47938461538462,-21.50381679389313,150.46564885496184,109.17557251908396,563.3944954128441,587.1559633027523,0.091743119266055,0.0
1760027547.8081503,408,-0.5030769230769231,1.5954725274725277,-227.8722857142857,-29.3206106870229,-44.954198473282446,109.16793893129773,563.3944954128441,587.1559633027523,0.091743119266055,0.0
1760027547.8185177,409,-0.5102637362637363,1.688901098901099,-213.27586813186812,48.847328244274806,31.267175572519083,118.9465648854962,445.9633027522936,798.5321100917431,0.091743119266055,0.0
1760027547.8288467,410,-0.539010989010989,1.724835164835165,-183.69494505494507,1.9465648854961832,39.083969465648856,118.9465648854962,445.9633027522936,798.5321100917431,0.091743119266055,0.0
1760027547.8391318,411,-0.4815164835164835,1.688901098901099,-146.94158241758242,-13.687022900763358,48.847328244274806,116.99236641221374,492.9357798165138,845.5045871559633,0.091743119266055,0.0
1760027547.849487,412,-0.5246373626373626,1.6601538461538463,-183.73087912087917,9.763358778625957,54.7175572519084,116.99236641221374,492.9357798165138,845.5045871559633,0.091743119266055,0.0
1760027547.8598082,413,-0.5893186813186814,1.688901098901099,-139.59665934065933,72.29770992366412,23.450381679389317,120.90076335877863,422.47706422018354,610.6422018348624,0.091743119266055,0.0
1760027547.8700917,414,-0.539010989010989,1.6601538461538463,-191.1261098901099,41.03053435114504,39.083969465648856,120.90076335877863,422.47706422018354,610.6422018348624,0.091743119266055,0.0
1760027547.8803768,415,-0.4024615384615385,1.7463956043956046,-169.04103296703298,48.847328244274806,7.816793893129771,107.22137404580153,516.4220183486239,657.6146788990826,0.091743119266055,0.0
1760027547.8906891,416,-0.4312087912087912,1.8182637362637364,-198.55008791208792,56.66412213740458,7.816793893129771,107.22137404580153,516.4220183486239,657.6146788990826,0.091743119266055,0.0
1760027547.90106,417,-0.4671428571428571,1.767956043956044,-132.35235164835166,-29.3206106870229,103.5648854961832,111.12977099236642,469.4495412844037,681.1009174311927,0.091743119266055,0.0
1760027547.9114113,418,-0.4743296703296704,1.6026593406593408,-168.99072527472526,17.580152671755727,-31.267175572519083,111.12213740458016,469.4495412844037,681.1009174311927,0.091743119266055,0.0
1760027547.9218194,419,-0.3377802197802198,1.6242197802197802,-132.2661098901099,9.763358778625957,70.35114503816794,122.85496183206106,352.0183486238532,657.6146788990826,0.091743119266055,0.0
1760027547.932207,420,-0.3737142857142858,1.6817142857142855,-124.99305494505494,41.03053435114504,132.8854961832061,122.85496183206106,352.0183486238532,657.6146788990826,0.091743119266055,0.0
1760027547.9425838,421,-0.6108791208791209,1.609846153846154,-146.95595604395606,1.9465648854961832,31.267175572519083,118.9465648854962,422.47706422018354,540.1834862385322,0.091743119266055,0.0
1760027547.9529235,422,-0.4455824175824175,1.7104615384615385,-183.94648351648357,1.9465648854961832,39.083969465648856,122.85496183206106,469.4495412844037,704.5871559633028,0.091743119266055,0.0
1760027547.963439,423,-0.5533846153846155,1.7032747252747251,-198.3847912087912,25.396946564885496,15.63358778625954,122.85496183206106,469.4495412844037,704.5871559633028,0.091743119266055,0.0
1760027547.9737945,424,-0.6468131868131869,1.7607692307692309,-205.87345054945052,-21.50381679389313,-21.50381679389313,122.8473282442748,516.4220183486239,704.5871559633028,0.091743119266055,0.0
1760027547.9841466,425,-0.4671428571428571,1.7535824175824175,-169.06978021978023,9.763358778625957,39.083969465648856,122.85496183206106,516.4220183486239,704.5871559633028,0.091743119266055,0.0
1760027547.9944525,426,-0.5605714285714286,1.7463956043956046,-213.1465054945055,25.396946564885496,0.0,118.9465648854962,328.5321100917431,728.0733944954129,0.091743119266055,0.0
1760027548.0047767,427,-0.4887032967032967,1.6745274725274726,-176.45063736263737,-5.870229007633588,48.847328244274806,118.9465648854962,328.5321100917431,728.0733944954129,0.091743119266055,0.0
1760027548.0153325,428,-0.459956043956044,1.7104615384615385,-176.4290769230769,-13.687022900763358,33.213740458015266,115.0381679389313,492.9357798165138,704.5871559633028,0.091743119266055,0.0
1760027548.0256398,429,-0.539010989010989,1.7463956043956046,-132.34516483516484,41.03053435114504,46.90076335877863,115.0381679389313,492.9357798165138,704.5871559633028,0.091743119266055,0.0
1760027548.0359678,430,-0.4815164835164835,1.80389010989011,-205.82314285714287,33.213740458015266,15.63358778625954,118.9465648854962,305.045871559633,587.1559633027523,0.091743119266055,0.0
1760027548.0462945,431,-0.5030769230769231,1.6673406593406594,-213.1896263736264,87.93129770992367,31.267175572519083,118.9465648854962,305.045871559633,587.1559633027523,0.091743119266055,0.0
1760027548.0566947,432,-0.4815164835164835,1.6529670329670332,-161.69610989010988,1.9465648854961832,23.450381679389317,109.17557251908396,563.3944954128441,587.1559633027523,0.091743119266055,0.0
1760027548.0671422,433,-0.459956043956044,1.80389010989011,-147.01345054945057,1.9465648854961832,15.63358778625954,109.17557251908396,563.3944954128441,587.1559633027523,0.091743119266055,0.0
1760027548.07757,434,-0.4383956043956044,1.7607692307692309,-183.7668131868132,25.396946564885496,85.98473282442748,130.67175572519085,633.8532110091744,704.5871559633028,0.091743119266055,0.0
1760027548.0879924,435,-0.5030769230769231,1.6673406593406594,-146.94158241758242,-13.687022900763358,9.763358778625957,130.67175572519085,633.8532110091744,704.5871559633028,0.091743119266055,0.0
1760027548.0983944,436,-0.4743296703296704,1.6385934065934065,-176.4075164835165,-5.870229007633588,33.213740458015266,113.08396946564883,469.4495412844037,728.0733944954129,0.091743119266055,0.0
1760027548.1088097,437,-0.539010989010989,1.767956043956044,-176.4578241758242,-5.870229007633588,72.29770992366412,113.08396946564883,469.4495412844037,728.0733944954129,0.091743119266055,0.0
1760027548.1191497,438,-0.4671428571428571,1.7032747252747251,-176.33564835164836,48.847328244274806,0.0,109.17557251908396,516.4220183486239,681.1009174311927,0.091743119266055,0.0
1760027548.1295288,439,-0.4958901098901099,1.6817142857142855,-154.3511868131868,9.763358778625957,62.534351145038165,109.17557251908396,516.4220183486239,681.1009174311927,0.091743119266055,0.0
1760027548.1399372,440,-0.4383956043956044,1.617032967032967,-169.07696703296705,48.847328244274806,54.7175572519084,122.85496183206106,445.9633027522936,634.1284403669725,0.091743119266055,0.0
1760027548.1503534,441,-0.4815164835164835,1.7320219780219783,-176.48657142857144,48.847328244274806,70.35114503816794,122.85496183206106,445.9633027522936,634.1284403669725,0.091743119266055,0.0
1760027548.1607623,442,-0.5605714285714286,1.767956043956044,-161.75360439560438,9.763358778625957,54.7175572519084,124.80916030534353,469.4495412844037,634.1284403669725,0.091743119266055,0.0
1760027548.171264,443,-0.5174505494505495,1.6601538461538463,-161.68892307692306,33.213740458015266,7.816793893129771,124.80916030534353,469.4495412844037,634.1284403669725,0.091743119266055,0.0
1760027548.1816998,444,-0.5318241758241758,1.6242197802197802,-198.4350989010989,-21.50381679389313,41.03053435114504,130.67175572519085,469.4495412844037,634.1284403669725,0.091743119266055,0.0
1760027548.1922398,445,-0.4815164835164835,1.7392087912087917,-176.32127472527475,1.9465648854961832,78.16793893129771,130.67175572519085,469.4495412844037,634.1284403669725,0.091743119266055,0.0
1760027548.202572,446,-0.4815164835164835,1.6673406593406594,-168.93323076923076,17.580152671755727,62.534351145038165,116.99236641221374,422.47706422018354,681.1009174311927,0.091743119266055,0.0
1760027548.21289,447,-0.4887032967032967,1.7104615384615385,-161.68892307692306,87.93129770992367,7.816793893129771,116.99236641221374,422.47706422018354,681.1009174311927,0.091743119266055,0.0
1760027548.2232373,448,-0.4024615384615385,1.631406593406593,-235.28189010989013,25.396946564885496,7.816793893129771,122.85496183206106,445.9633027522936,540.1834862385322,0.091743119266055,0.0
1760027548.2335677,449,-0.4887032967032967,1.6242197802197802,-161.76797802197802,80.1145038167939,7.816793893129771,122.85496183206106,445.9633027522936,540.1834862385322,0.091743119266055,0.0
1760027548.2438812,450,-0.5174505494505495,1.7463956043956046,-176.37876923076925,1.9465648854961832,-7.816793893129771,128.70992366412213,445.9633027522936,704.5871559633028,0.091743119266055,0.0
1760027548.254238,451,-0.5174505494505495,1.724835164835165,-198.5429010989011,1.9465648854961832,46.90076335877863,128.7175572519084,445.9633027522936,704.5871559633028,0.091743119266055,0.0
1760027548.2646215,452,-0.5965054945054945,1.6529670329670332,-154.3511868131868,33.213740458015266,70.35114503816794,132.6259541984733,445.9633027522936,587.1559633027523,0.091743119266055,0.0
1760027548.274993,453,-0.3952747252747253,1.6817142857142855,-191.0326813186813,41.03053435114504,54.7175572519084,132.6259541984733,445.9633027522936,587.1559633027523,0.091743119266055,0.0
1760027548.285328,454,-0.4815164835164835,1.6817142857142855,-161.6458021978022,-13.687022900763358,119.19847328244276,113.08396946564883,375.5045871559633,681.1009174311927,0.091743119266055,0.0
1760027548.2957003,455,-0.4743296703296704,1.6673406593406594,-183.71650549450555,41.03053435114504,7.816793893129771,113.08396946564883,375.5045871559633,681.1009174311927,0.091743119266055,0.0
1760027548.3061304,456,-0.6252527472527473,1.7463956043956046,-191.197978021978,-13.687022900763358,9.763358778625957,115.0381679389313,680.8256880733944,822.0183486238533,0.091743119266055,0.0
1760027548.3165183,457,-0.4096483516483516,1.7607692307692309,-132.23736263736265,-5.870229007633588,72.29770992366412,115.0381679389313,680.8256880733944,822.0183486238533,0.091743119266055,0.0
1760027548.3269086,458,-0.4887032967032967,1.6817142857142855,-146.84815384615385,9.763358778625957,39.083969465648856,116.99236641221374,516.4220183486239,751.559633027523,0.091743119266055,0.0
1760027548.3373024,459,-0.4887032967032967,1.566725274725275,-213.21118681318683,9.763358778625957,31.267175572519083,116.99236641221374,516.4220183486239,751.559633027523,0.091743119266055,0.0
1760027548.3476954,460,-0.5605714285714286,1.688901098901099,-191.082989010989,-52.770992366412216,41.03053435114504,120.90076335877863,492.9357798165138,634.1284403669725,0.091743119266055,0.0
1760027548.3580751,461,-0.5246373626373626,1.631406593406593,-176.4147032967033,56.66412213740458,15.63358778625954,120.90076335877863,492.9357798165138,634.1284403669725,0.091743119266055,0.0
1760027548.3685026,462,-0.5605714285714286,1.6242197802197802,-191.14767032967032,-37.13740458015267,-13.687022900763358,116.98473282442748,633.8532110091744,634.1284403669725,0.091743119266055,0.0
1760027548.3788252,463,-0.5533846153846155,1.7607692307692309,-161.79672527472528,-5.870229007633588,25.396946564885496,116.99236641221374,633.8532110091744,634.1284403669725,0.091743119266055,0.0
1760027548.389202,464,-0.4455824175824175,1.7607692307692309,-176.40032967032968,33.213740458015266,62.534351145038165,120.90076335877863,305.045871559633,610.6422018348624,0.091743119266055,0.0
1760027548.3996203,465,-0.4527692307692308,1.7176483516483516,-191.22672527472525,33.213740458015266,78.16793893129771,115.0381679389313,398.99082568807336,728.0733944954129,0.091743119266055,0.0
1760027548.4099877,466,-0.4958901098901099,1.6960879120879122,228.38973626373627,1.9465648854961832,7.816793893129771,115.0381679389313,398.99082568807336,728.0733944954129,0.091743119266055,0.0
1760027548.4204,467,-0.5893186813186814,1.6673406593406594,-176.3643956043956,25.396946564885496,46.90076335877863,120.90076335877863,563.3944954128441,610.6422018348624,0.091743119266055,0.0
1760027548.4308076,468,-0.5174505494505495,1.5595384615384615,-176.37158241758243,33.213740458015266,31.267175572519083,120.90076335877863,563.3944954128441,610.6422018348624,0.091743119266055,0.0
1760027548.4412158,469,-0.4958901098901099,1.6673406593406594,-191.10454945054943,1.9465648854961832,0.0,122.85496183206106,492.9357798165138,681.1009174311927,0.091743119266055,0.0
1760027548.45162,470,-0.539010989010989,1.7032747252747251,-191.09017582417584,25.396946564885496,-15.63358778625954,122.8473282442748,492.9357798165138,681.1009174311927,0.091743119266055,0.0
1760027548.461897,471,-0.4096483516483516,1.5020439560439562,-161.60986813186813,-21.50381679389313,41.03053435114504,116.99236641221374,516.4220183486239,610.6422018348624,0.091743119266055,0.0
1760027548.4721968,472,-0.5965054945054945,1.6817142857142855,-146.95595604395606,-29.3206106870229,17.580152671755727,116.99236641221374,516.4220183486239,610.6422018348624,0.091743119266055,0.0
1760027548.4826007,473,-0.574945054945055,1.7392087912087917,-132.28767032967033,-21.50381679389313,41.03053435114504,126.76335877862596,398.99082568807336,610.6422018348624,0.091743119266055,0.0
1760027548.4929428,474,-0.4887032967032967,1.767956043956044,-154.31525274725274,9.763358778625957,39.083969465648856,126.76335877862596,398.99082568807336,610.6422018348624,0.091743119266055,0.0
1760027548.5032842,475,-0.574945054945055,1.6529670329670332,-154.31525274725274,25.396946564885496,31.267175572519083,120.90076335877863,445.9633027522936,657.6146788990826,0.091743119266055,0.0
1760027548.513734,476,-0.5030769230769231,1.7176483516483516,-161.63861538461538,1.9465648854961832,54.7175572519084,120.90076335877863,445.9633027522936,657.6146788990826,0.091743119266055,0.0
1760027548.5241103,477,-0.3162197802197802,1.7535824175824175,-176.465010989011,-5.870229007633588,-13.687022900763358,126.7557251908397,398.99082568807336,657.6146788990826,0.091743119266055,0.0
1760027548.534494,478,-0.4455824175824175,1.6817142857142855,-169.03384615384616,33.213740458015266,-15.63358778625954,126.7557251908397,398.99082568807336,657.6146788990826,0.091743119266055,0.0
1760027548.5448215,479,-0.5246373626373626,1.7967032967032968,-176.37876923076925,56.66412213740458,54.7175572519084,122.85496183206106,422.47706422018354,634.1284403669725,0.091743119266055,0.0
1760027548.555166,480,-0.5174505494505495,1.5810989010989014,-146.97032967032968,17.580152671755727,62.534351145038165,122.85496183206106,422.47706422018354,634.1284403669725,0.091743119266055,0.0
1760027548.5655787,481,-0.3737142857142858,1.7535824175824175,-220.5561098901099,41.03053435114504,7.816793893129771,122.85496183206106,375.5045871559633,704.5871559633028,0.091743119266055,0.0
1760027548.575908,482,-0.4815164835164835,1.724835164835165,-169.1200879120879,1.9465648854961832,85.98473282442748,122.85496183206106,375.5045871559633,704.5871559633028,0.091743119266055,0.0
1760027548.5887682,483,-0.5461978021978022,1.6601538461538463,-161.6601758241758,1.9465648854961832,39.083969465648856,130.67175572519085,305.045871559633,868.9908256880734,0.091743119266055,0.0
1760027548.599124,484,-0.4743296703296704,1.7823296703296705,-117.58345054945056,9.763358778625957,23.450381679389317,130.67175572519085,305.045871559633,868.9908256880734,0.091743119266055,0.0
1760027548.6095138,485,-0.4815164835164835,1.7895164835164834,-161.74641758241756,25.396946564885496,54.7175572519084,124.80916030534353,610.3669724770642,845.5045871559633,0.091743119266055,0.0
1760027548.6197753,486,-0.459956043956044,1.6817142857142855,-183.7021318681319,9.763358778625957,7.816793893129771,124.80916030534353,610.3669724770642,845.5045871559633,0.091743119266055,0.0
1760027548.630076,487,-0.459956043956044,1.6242197802197802,-213.1752527472528,-13.687022900763358,33.213740458015266,124.80916030534353,469.4495412844037,634.1284403669725,0.091743119266055,0.0
1760027548.640469,488,-0.4383956043956044,1.609846153846154,-154.32243956043956,-5.870229007633588,64.48091603053435,124.80916030534353,469.4495412844037,634.1284403669725,0.091743119266055,0.0
1760027548.6508288,489,-0.6683736263736263,1.688901098901099,-176.4147032967033,41.03053435114504,93.80152671755724,109.17557251908396,375.5045871559633,681.1009174311927,0.091743119266055,0.0
1760027548.6611514,490,-0.6036923076923078,1.6529670329670332,-139.66852747252747,-5.870229007633588,25.396946564885496,109.17557251908396,375.5045871559633,681.1009174311927,0.091743119266055,0.0
1760027548.6715534,491,-0.4815164835164835,1.7176483516483516,-124.96430769230768,87.93129770992367,-7.816793893129771,128.70992366412213,492.9357798165138,610.6422018348624,0.091743119266055,0.0
1760027548.6819048,492,-0.5102637362637363,1.6385934065934065,-139.62540659340658,9.763358778625957,23.450381679389317,128.7175572519084,492.9357798165138,610.6422018348624,0.091743119266055,0.0
1760027548.6922183,493,-0.4958901098901099,1.631406593406593,-183.7811868131868,33.213740458015266,46.90076335877863,122.85496183206106,398.99082568807336,587.1559633027523,0.091743119266055,0.0
1760027548.7025266,494,-0.4887032967032967,1.6817142857142855,-139.66134065934065,-29.3206106870229,41.03053435114504,122.85496183206106,398.99082568807336,587.1559633027523,0.091743119266055,0.0
1760027548.7128165,495,-0.5605714285714286,1.724835164835165,-183.738065934066,48.847328244274806,62.534351145038165,124.80916030534353,445.9633027522936,704.5871559633028,0.091743119266055,0.0
1760027548.7232072,496,-0.3521538461538461,1.7320219780219783,-161.63142857142856,56.66412213740458,54.7175572519084,124.80916030534353,445.9633027522936,704.5871559633028,0.091743119266055,0.0
1760027548.7338223,497,-0.5030769230769231,1.7032747252747251,-198.55008791208792,-5.870229007633588,17.580152671755727,109.17557251908396,563.3944954128441,587.1559633027523,0.091743119266055,0.0
1760027548.744156,498,-0.5174505494505495,1.7392087912087917,-183.77400000000003,48.847328244274806,46.90076335877863,109.17557251908396,563.3944954128441,587.1559633027523,0.091743119266055,0.0
1760027548.7545283,499,-0.5677582417582419,1.6673406593406594,-176.4721978021978,48.847328244274806,39.083969465648856,103.31297709923663,492.9357798165138,751.559633027523,0.091743119266055,0.0
1760027548.7649007,500,-0.5893186813186814,1.631406593406593,-220.512989010989,17.580152671755727,-23.450381679389317,103.3053435114504,492.9357798165138,751.559633027523,0.091743119266055,0.0
1760027548.7752333,501,-0.4958901098901099,1.7176483516483516,-191.15485714285717,-13.687022900763358,17.580152671755727,115.0381679389313,422.47706422018354,728.0733944954129,0.091743119266055,0.0
1760027548.7855744,502,-0.574945054945055,1.7176483516483516,228.3969230769231,33.213740458015266,39.083969465648856,115.0381679389313,422.47706422018354,728.0733944954129,0.091743119266055,0.0
1760027548.7959073,503,-0.5102637362637363,1.6601538461538463,-213.1465054945055,25.396946564885496,93.80152671755724,122.85496183206106,305.045871559633,798.5321100917431,0.091743119266055,0.0
1760027548.8062234,504,-0.4527692307692308,1.7176483516483516,-183.78837362637364,-5.870229007633588,17.580152671755727,122.85496183206106,305.045871559633,798.5321100917431,0.091743119266055,0.0
1760027548.8166203,505,-0.5030769230769231,1.617032967032967,-183.80993406593407,41.03053435114504,7.816793893129771,120.90076335877863,539.908256880734,610.6422018348624,0.091743119266055,0.0
1760027548.8269932,506,-0.5174505494505495,1.7607692307692309,-191.11173626373625,-13.687022900763358,72.29770992366412,120.90076335877863,539.908256880734,610.6422018348624,0.091743119266055,0.0
1760027548.8373158,507,-0.4671428571428571,1.7895164835164834,-147.02782417582418,-5.870229007633588,9.763358778625957,134.5801526717557,539.908256880734,728.0733944954129,0.091743119266055,0.0
1760027548.8476365,508,-0.5102637362637363,1.6026593406593408,-205.895010989011,17.580152671755727,23.450381679389317,134.5801526717557,539.908256880734,728.0733944954129,0.091743119266055,0.0
1760027548.8579147,509,-0.459956043956044,1.6673406593406594,-169.01228571428572,-21.50381679389313,48.847328244274806,115.0381679389313,445.9633027522936,657.6146788990826,0.091743119266055,0.0
1760027548.8681936,510,-0.459956043956044,1.7463956043956046,-227.88665934065932,-21.50381679389313,33.213740458015266,126.76335877862596,375.5045871559633,493.2110091743119,0.091743119266055,0.0
1760027548.8785255,511,-0.4671428571428571,1.7032747252747251,-176.4578241758242,48.847328244274806,31.267175572519083,126.76335877862596,375.5045871559633,493.2110091743119,0.091743119266055,0.0
1760027548.8888595,512,-0.3952747252747253,1.724835164835165,-183.80274725274728,-21.50381679389313,33.213740458015266,122.85496183206106,328.5321100917431,751.559633027523,0.091743119266055,0.0
1760027548.8991828,513,-0.459956043956044,1.6960879120879122,-161.7176703296703,-21.50381679389313,33.213740458015266,122.85496183206106,328.5321100917431,751.559633027523,0.091743119266055,0.0
1760027548.9094846,514,-0.4455824175824175,1.573912087912088,-161.7032967032967,33.213740458015266,-31.267175572519083,132.61832061068702,422.47706422018354,634.1284403669725,0.091743119266055,0.0
1760027548.919781,515,-0.4743296703296704,1.6960879120879122,-213.2614945054945,-37.13740458015267,-13.687022900763358,132.61832061068702,422.47706422018354,634.1284403669725,0.091743119266055,0.0
1760027548.9301577,516,-0.5030769230769231,1.7032747252747251,-161.7607912087912,56.66412213740458,85.98473282442748,126.76335877862596,492.9357798165138,610.6422018348624,0.091743119266055,0.0
1760027548.940468,517,-0.5965054945054945,1.688901098901099,-183.73087912087917,25.396946564885496,31.267175572519083,126.76335877862596,492.9357798165138,610.6422018348624,0.091743119266055,0.0
1760027548.9508138,518,-0.5102637362637363,1.6601538461538463,-169.09134065934066,41.03053435114504,31.267175572519083,109.17557251908396,328.5321100917431,634.1284403669725,0.091743119266055,0.0
1760027548.961157,519,-0.424021978021978,1.6457802197802198,-213.27586813186812,-5.870229007633588,64.48091603053435,109.17557251908396,328.5321100917431,634.1284403669725,0.091743119266055,0.0
1760027548.9714997,520,-0.459956043956044,1.617032967032967,228.31786813186807,-13.687022900763358,17.580152671755727,120.90076335877863,422.47706422018354,587.1559633027523,0.091743119266055,0.0
1760027548.981753,521,-0.5030769230769231,1.6529670329670332,-161.75360439560438,-60.58778625954199,48.847328244274806,120.90076335877863,422.47706422018354,587.1559633027523,0.091743119266055,0.0
1760027548.9920237,522,-0.4527692307692308,1.7607692307692309,-191.1261098901099,1.9465648854961832,7.816793893129771,120.90076335877863,422.47706422018354,704.5871559633028,0.091743119266055,0.0
1760027549.0023315,523,-0.5318241758241758,1.7032747252747251,-154.40868131868132,41.03053435114504,7.816793893129771,120.90076335877863,422.47706422018354,704.5871559633028,0.091743119266055,0.0
1760027549.0126328,524,-0.4958901098901099,1.5307912087912088,-213.1824395604396,103.5648854961832,7.816793893129771,103.31297709923663,492.9357798165138,704.5871559633028,0.091743119266055,0.0
1760027549.0229342,525,-0.4743296703296704,1.7463956043956046,-198.4350989010989,-5.870229007633588,41.03053435114504,103.31297709923663,492.9357798165138,704.5871559633028,0.091743119266055,0.0
1760027549.0333018,526,-0.5030769230769231,1.6817142857142855,-183.71650549450555,17.580152671755727,15.63358778625954,120.90076335877863,398.99082568807336,751.559633027523,0.091743119266055,0.0
1760027549.0437207,527,-0.4958901098901099,1.617032967032967,-213.1465054945055,9.763358778625957,62.534351145038165,120.90076335877863,398.99082568807336,751.559633027523,0.091743119266055,0.0
1760027549.05409,528,-0.4887032967032967,1.5882857142857143,-154.2936923076923,-13.687022900763358,33.213740458015266,115.0381679389313,328.5321100917431,657.6146788990826,0.091743119266055,0.0
1760027549.0644083,529,-0.4527692307692308,1.6529670329670332,-213.16087912087917,-5.870229007633588,33.213740458015266,115.0381679389313,328.5321100917431,657.6146788990826,0.091743119266055,0.0
1760027549.07473,530,-0.4527692307692308,1.7104615384615385,-183.738065934066,-5.870229007633588,33.213740458015266,116.99236641221374,328.5321100917431,587.1559633027523,0.091743119266055,0.0
1760027549.08511,531,-0.4815164835164835,1.5882857142857143,-198.51415384615385,-5.870229007633588,17.580152671755727,116.99236641221374,328.5321100917431,587.1559633027523,0.091743119266055,0.0
1760027549.0956855,532,-0.4671428571428571,1.7032747252747251,-213.4052307692308,1.9465648854961832,15.63358778625954,111.12977099236642,539.908256880734,610.6422018348624,0.091743119266055,0.0
1760027549.1060205,533,-0.5605714285714286,1.566725274725275,-205.9884395604396,25.396946564885496,85.98473282442748,111.12977099236642,539.908256880734,610.6422018348624,0.091743119266055,0.0
1760027549.1163623,534,-0.5965054945054945,1.6385934065934065,-147.02782417582418,9.763358778625957,23.450381679389317,107.22137404580153,422.47706422018354,634.1284403669725,0.091743119266055,0.0
1760027549.1267052,535,-0.4887032967032967,1.767956043956044,-213.32617582417583,9.763358778625957,15.63358778625954,107.22137404580153,422.47706422018354,634.1284403669725,0.091743119266055,0.0
1760027549.136992,536,-0.424021978021978,1.7751428571428571,-235.24595604395608,-44.954198473282446,41.03053435114504,126.76335877862596,445.9633027522936,563.6697247706422,0.091743119266055,0.0
1760027549.1472912,537,-0.4455824175824175,1.6242197802197802,-117.59063736263737,9.763358778625957,39.083969465648856,126.76335877862596,445.9633027522936,563.6697247706422,0.091743119266055,0.0
1760027549.1576607,538,-0.459956043956044,1.6026593406593408,-132.34516483516484,41.03053435114504,31.267175572519083,113.08396946564883,422.47706422018354,634.1284403669725,0.091743119266055,0.0
1760027549.1680202,539,-0.5174505494505495,1.537978021978022,-154.30806593406592,1.9465648854961832,93.80152671755724,113.08396946564883,422.47706422018354,634.1284403669725,0.091743119266055,0.0
1760027549.17834,540,-0.5677582417582419,1.6745274725274726,-176.465010989011,56.66412213740458,46.90076335877863,111.12977099236642,375.5045871559633,775.045871559633,0.091743119266055,0.0
1760027549.188737,541,-0.5246373626373626,1.7320219780219783,-198.57164835164835,25.396946564885496,39.083969465648856,111.12977099236642,375.5045871559633,775.045871559633,0.091743119266055,0.0
1760027549.1991174,542,-0.5461978021978022,1.6817142857142855,-191.082989010989,-29.3206106870229,41.03053435114504,111.12977099236642,469.4495412844037,634.1284403669725,0.091743119266055,0.0
1760027549.2094655,543,-0.5821318681318681,1.7176483516483516,-176.38595604395604,25.396946564885496,15.63358778625954,111.12977099236642,469.4495412844037,634.1284403669725,0.091743119266055,0.0
1760027549.2197323,544,-0.4743296703296704,1.6673406593406594,-191.15485714285717,80.1145038167939,0.0,126.76335877862596,445.9633027522936,728.0733944954129,0.091743119266055,0.0
1760027549.23,545,-0.4312087912087912,1.617032967032967,-154.36556043956045,-5.870229007633588,33.213740458015266,126.76335877862596,445.9633027522936,728.0733944954129,0.091743119266055,0.0
1760027549.2403572,546,-0.5174505494505495,1.7392087912087917,-220.6064175824176,-13.687022900763358,41.03053435114504,115.0381679389313,469.4495412844037,798.5321100917431,0.091743119266055,0.0
1760027549.2506795,547,-0.6252527472527473,1.7967032967032968,-161.71048351648352,33.213740458015266,23.450381679389317,115.0381679389313,469.4495412844037,798.5321100917431,0.091743119266055,0.0
1760027549.260996,548,-0.5030769230769231,1.7751428571428571,-220.5704835164835,1.9465648854961832,31.267175572519083,118.9465648854962,328.5321100917431,704.5871559633028,0.091743119266055,0.0
1760027549.2712655,549,-0.3162197802197802,1.6601538461538463,-205.9884395604396,-13.687022900763358,56.66412213740458,118.9465648854962,328.5321100917431,704.5871559633028,0.091743119266055,0.0
1760027549.281562,550,-0.4168351648351648,1.767956043956044,-198.41353846153845,80.1145038167939,62.534351145038165,95.49618320610686,516.4220183486239,634.1284403669725,0.091743119266055,0.0
1760027549.2918508,551,-0.5318241758241758,1.6457802197802198,-183.83149450549453,9.763358778625957,46.90076335877863,95.49618320610686,516.4220183486239,634.1284403669725,0.091743119266055,0.0
1760027549.3021953,552,-0.5605714285714286,1.609846153846154,-176.40032967032968,9.763358778625957,7.816793893129771,101.3587786259542,539.908256880734,704.5871559633028,0.091743119266055,0.0
1760027549.312533,553,-0.4671428571428571,1.80389010989011,-169.03384615384616,-13.687022900763358,41.03053435114504,101.3587786259542,539.908256880734,704.5871559633028,0.091743119266055,0.0
1760027549.322976,554,-0.5030769230769231,1.631406593406593,-191.197978021978,41.03053435114504,39.083969465648856,128.7175572519084,375.5045871559633,516.6972477064221,0.091743119266055,0.0
1760027549.3333762,555,-0.4958901098901099,1.7535824175824175,-169.04103296703298,-13.687022900763358,25.396946564885496,124.80916030534353,492.9357798165138,728.0733944954129,0.091743119266055,0.0
1760027549.3437936,556,-0.5677582417582419,1.7895164835164834,-191.11892307692307,41.03053435114504,78.16793893129771,124.80916030534353,492.9357798165138,728.0733944954129,0.091743119266055,0.0
1760027549.3541484,557,-0.4887032967032967,1.7823296703296705,-161.66736263736263,-5.870229007633588,41.03053435114504,120.90076335877863,398.99082568807336,587.1559633027523,0.091743119266055,0.0
1760027549.3644884,558,-0.5965054945054945,1.7320219780219783,-183.83868131868127,87.93129770992367,23.450381679389317,120.90076335877863,398.99082568807336,587.1559633027523,0.091743119266055,0.0
1760027549.3748367,559,-0.4887032967032967,1.688901098901099,-198.4925934065934,41.03053435114504,70.35114503816794,103.31297709923663,398.99082568807336,681.1009174311927,0.091743119266055,0.0
1760027549.385154,560,-0.4671428571428571,1.6960879120879122,-205.88063736263737,17.580152671755727,62.534351145038165,103.31297709923663,398.99082568807336,681.1009174311927,0.091743119266055,0.0
1760027549.395497,561,-0.6468131868131869,1.6960879120879122,-213.15369230769232,48.847328244274806,-15.63358778625954,113.0763358778626,422.47706422018354,563.6697247706422,0.091743119266055,0.0
1760027549.4058917,562,-0.5030769230769231,1.7176483516483516,-213.204,-29.3206106870229,56.66412213740458,113.08396946564883,422.47706422018354,563.6697247706422,0.091743119266055,0.0
1760027549.4162858,563,-0.5102637362637363,1.6673406593406594,-213.2327472527473,48.847328244274806,7.816793893129771,124.80916030534353,469.4495412844037,634.1284403669725,0.091743119266055,0.0
1760027549.426616,564,-0.539010989010989,1.6529670329670332,-154.30087912087913,64.48091603053435,54.7175572519084,124.80916030534353,469.4495412844037,634.1284403669725,0.091743119266055,0.0
1760027549.4369037,565,-0.5102637362637363,1.5954725274725277,-213.23993406593408,17.580152671755727,15.63358778625954,120.90076335877863,422.47706422018354,704.5871559633028,0.091743119266055,0.0
1760027549.4473023,566,-0.6108791208791209,1.566725274725275,-205.8878241758242,17.580152671755727,39.083969465648856,120.90076335877863,422.47706422018354,704.5871559633028,0.091743119266055,0.0
1760027549.4579017,567,-0.5461978021978022,1.7535824175824175,-205.8447032967033,-21.50381679389313,25.396946564885496,109.17557251908396,539.908256880734,728.0733944954129,0.091743119266055,0.0
1760027549.468226,568,-0.4527692307692308,1.5882857142857143,-154.27931868131867,-21.50381679389313,33.213740458015266,109.17557251908396,539.908256880734,728.0733944954129,0.091743119266055,0.0
1760027549.478573,569,-0.5533846153846155,1.724835164835165,-139.68290109890108,1.9465648854961832,93.80152671755724,132.6259541984733,610.3669724770642,634.1284403669725,0.091743119266055,0.0
1760027549.4889612,570,-0.4096483516483516,1.6601538461538463,-183.7596263736264,25.396946564885496,-15.63358778625954,132.61832061068702,610.3669724770642,634.1284403669725,0.091743119266055,0.0
1760027549.499381,571,-0.4887032967032967,1.6242197802197802,-169.04103296703298,-5.870229007633588,103.5648854961832,120.90076335877863,539.908256880734,751.559633027523,0.091743119266055,0.0
1760027549.5097437,572,-0.5318241758241758,1.7392087912087917,-176.43626373626375,-13.687022900763358,48.847328244274806,120.90076335877863,539.908256880734,751.559633027523,0.091743119266055,0.0
1760027549.5201094,573,-0.4671428571428571,1.7392087912087917,-176.4075164835165,17.580152671755727,39.083969465648856,103.31297709923663,398.99082568807336,704.5871559633028,0.091743119266055,0.0
1760027549.530526,574,-0.574945054945055,1.8254505494505493,-161.72485714285713,9.763358778625957,39.083969465648856,103.31297709923663,398.99082568807336,704.5871559633028,0.091743119266055,0.0
1760027549.5408456,575,-0.5893186813186814,1.688901098901099,-235.30345054945056,25.396946564885496,85.98473282442748,132.6259541984733,398.99082568807336,610.6422018348624,0.091743119266055,0.0
1760027549.5511446,576,-0.5174505494505495,1.6601538461538463,-205.8303296703297,-29.3206106870229,48.847328244274806,132.6259541984733,398.99082568807336,610.6422018348624,0.091743119266055,0.0
1760027549.5614526,577,-0.459956043956044,1.617032967032967,-117.54032967032968,56.66412213740458,-62.534351145038165,116.98473282442748,375.5045871559633,681.1009174311927,0.091743119266055,0.0
1760027549.5718272,578,-0.5533846153846155,1.724835164835165,-154.344,9.763358778625957,39.083969465648856,116.99236641221374,375.5045871559633,681.1009174311927,0.091743119266055,0.0
1760027549.5822752,579,-0.4958901098901099,1.6601538461538463,-154.344,41.03053435114504,15.63358778625954,124.80916030534353,516.4220183486239,540.1834862385322,0.091743119266055,0.0
1760027549.5925908,580,-0.5246373626373626,1.5092307692307694,-191.1332967032967,1.9465648854961832,7.816793893129771,124.80916030534353,516.4220183486239,540.1834862385322,0.091743119266055,0.0
1760027549.602954,581,-0.3305934065934066,1.6385934065934065,-146.95595604395606,1.9465648854961832,31.267175572519083,116.99236641221374,375.5045871559633,751.559633027523,0.091743119266055,0.0
1760027549.613332,582,-0.5174505494505495,1.6673406593406594,-183.8243076923077,-5.870229007633588,80.1145038167939,116.99236641221374,375.5045871559633,751.559633027523,0.091743119266055,0.0
1760027549.6236537,583,12.770967032967034,-14.6610989010989,-84.5816043956044,0.0305343511450381,-0.5267175572519084,1.83206106870229,-1875.6880733944956,305.22935779816515,-375.7798165137615,0.0
1760027549.6339529,584,2.0410549450549453,40.47613186813187,-27.590175824175823,15.6793893129771,15.572519083969466,9.412213740458014,-1691.0091743119267,-211.4678899082569,587.1559633027523,0.0
1760027549.6442437,585,-62.38153846153846,-5.081076923076924,0.114989010989011,2.16793893129771,-138.74809160305344,-29.30534351145038,188.5321100917431,187.3394495412844,113.30275229357798,0.0
1760027549.6545649,586,-0.5246373626373626,1.7535824175824175,-176.50094505494508,-29.3206106870229,72.29770992366412,109.17557251908396,492.9357798165138,704.5871559633028,0.091743119266055,0.0
1760027549.6648726,587,-0.5174505494505495,1.609846153846154,-220.54892307692307,-29.3206106870229,33.213740458015266,109.17557251908396,492.9357798165138,704.5871559633028,0.091743119266055,0.0
1760027549.6751509,588,-0.6468131868131869,1.8182637362637364,-183.68057142857143,33.213740458015266,62.534351145038165,128.7175572519084,516.4220183486239,704.5871559633028,0.091743119266055,0.0
1760027549.685439,589,-0.5893186813186814,1.609846153846154,-220.5561098901099,17.580152671755727,62.534351145038165,128.7175572519084,516.4220183486239,704.5871559633028,0.091743119266055,0.0
1760027549.6958148,590,-0.4024615384615385,1.6817142857142855,-176.4147032967033,56.66412213740458,54.7175572519084,126.76335877862596,492.9357798165138,540.1834862385322,0.091743119266055,0.0
1760027549.7061985,591,-0.5893186813186814,1.688901098901099,-117.57626373626374,41.03053435114504,31.267175572519083,126.76335877862596,492.9357798165138,540.1834862385322,0.091743119266055,0.0
1760027549.7165794,592,-0.5030769230769231,1.6673406593406594,-154.31525274725274,-13.687022900763358,-5.870229007633588,120.89312977099236,422.47706422018354,681.1009174311927,0.091743119266055,0.0
1760027549.7269516,593,-0.4958901098901099,1.7751428571428571,-124.92837362637364,41.03053435114504,-31.267175572519083,120.89312977099236,422.47706422018354,681.1009174311927,0.091743119266055,0.0
1760027549.7372935,594,-0.5461978021978022,1.6385934065934065,-235.30345054945056,56.66412213740458,15.63358778625954,113.08396946564883,398.99082568807336,587.1559633027523,0.091743119266055,0.0
1760027549.747672,595,-0.4671428571428571,1.7032747252747251,-220.50580219780215,1.9465648854961832,0.0,113.08396946564883,398.99082568807336,587.1559633027523,0.091743119266055,0.0
1760027549.757987,596,-0.4455824175824175,1.6242197802197802,-161.72485714285713,17.580152671755727,23.450381679389317,122.85496183206106,469.4495412844037,845.5045871559633,0.091743119266055,0.0
1760027549.7683146,597,-0.5174505494505495,1.7104615384615385,-154.3799340659341,-37.13740458015267,33.213740458015266,122.85496183206106,469.4495412844037,845.5045871559633,0.091743119266055,0.0
1760027549.7787302,598,-0.6036923076923078,1.6026593406593408,-154.3511868131868,17.580152671755727,39.083969465648856,116.99236641221374,422.47706422018354,751.559633027523,0.091743119266055,0.0
1760027549.7890694,599,-27.525494505494503,14.7689010989011,14.653912087912088,9.419847328244275,-134.83969465648855,-19.549618320610687,657.6146788990826,-8.440366972477065,-1.1009174311926606,0.0
1760027549.7994063,600,2.069802197802198,-171.10364835164833,-27.525494505494503,15.6793893129771,15.572519083969466,9.419847328244275,-1620.5504587155965,-446.3302752293578,1033.3944954128442,0.0
1760027549.8096917,601,-62.26654945054945,-5.066703296703298,0.0862417582417582,2.1603053435114505,136.793893129771,-29.229007633587788,188.5321100917431,187.1559633027523,113.21100917431193,0.0
1760027549.8199964,602,-0.5102637362637363,1.6745274725274726,-191.06142857142856,-5.870229007633588,48.847328244274806,118.9465648854962,563.3944954128441,728.0733944954129,0.091743119266055,0.0
1760027549.8303242,603,-0.3952747252747253,1.7392087912087917,-191.22672527472525,72.29770992366412,70.35114503816794,118.9465648854962,563.3944954128441,728.0733944954129,0.091743119266055,0.0
1760027549.8406138,604,-0.5605714285714286,1.6817142857142855,-146.91283516483517,1.9465648854961832,39.083969465648856,118.9465648854962,398.99082568807336,657.6146788990826,0.091743119266055,0.0
1760027549.8508835,605,-0.4958901098901099,1.6745274725274726,-154.5021098901099,17.580152671755727,54.7175572519084,118.9465648854962,398.99082568807336,657.6146788990826,0.091743119266055,0.0
1760027549.8612125,606,-0.5030769230769231,1.7607692307692309,-154.26494505494506,-5.870229007633588,-5.870229007633588,120.89312977099236,492.9357798165138,728.0733944954129,0.091743119266055,0.0
1760027549.8715808,607,-0.5174505494505495,1.6960879120879122,-161.68892307692306,56.66412213740458,-31.267175572519083,120.89312977099236,492.9357798165138,728.0733944954129,0.091743119266055,0.0
1760027549.881904,608,-0.4671428571428571,1.5882857142857143,-176.42189010989011,25.396946564885496,62.534351145038165,128.7175572519084,563.3944954128441,634.1284403669725,0.091743119266055,0.0
1760027549.8922083,609,-0.3809010989010989,1.7463956043956046,-213.2471208791209,25.396946564885496,78.16793893129771,128.7175572519084,563.3944954128441,634.1284403669725,0.091743119266055,0.0
1760027549.9025412,610,-0.5533846153846155,1.688901098901099,-183.7668131868132,41.03053435114504,78.16793893129771,128.7175572519084,563.3944954128441,634.1284403669725,0.091743119266055,0.0
1760027549.9128222,611,-0.459956043956044,1.6457802197802198,-154.32962637362638,41.03053435114504,39.083969465648856,128.7175572519084,563.3944954128441,634.1284403669725,0.091743119266055,0.0
1760027549.9231193,612,-0.3737142857142858,1.7320219780219783,-139.68290109890108,17.580152671755727,0.0,124.80916030534353,422.47706422018354,681.1009174311927,0.091743119266055,0.0
1760027549.9334602,613,-0.5174505494505495,1.767956043956044,-154.30806593406592,9.763358778625957,-7.816793893129771,124.80152671755724,422.47706422018354,681.1009174311927,0.091743119266055,0.0
1760027549.9438052,614,-0.4743296703296704,1.8182637362637364,-183.78837362637364,17.580152671755727,31.267175572519083,126.76335877862596,328.5321100917431,681.1009174311927,0.091743119266055,0.0
1760027549.9540854,615,-0.5318241758241758,1.6601538461538463,-198.52134065934067,1.9465648854961832,23.450381679389317,126.76335877862596,328.5321100917431,681.1009174311927,0.091743119266055,0.0
