timestamp,packet_id,accel_x,accel_y,accel_z,gyro_x,gyro_y,gyro_z,mag_x,mag_y,mag_z,battery,temperature
1760475859.178627,0,-0.95318603515625,0.12432861328125,0.12554931640625,9.419847328244275,-164.15267175572518,-37.13740458015267,657.6146788990826,-25.412844036697248,-17.155963302752294,,
1760475859.210904,0,-0.95306396484375,0.12420654296875,0.12530517578125,9.419847328244275,-168.06106870229007,-35.18320610687023,446.2385321100918,-25.229357798165136,-17.06422018348624,,
1760475859.221544,0,-0.952880859375,0.12432861328125,0.12530517578125,9.419847328244275,-140.70229007633588,-43.0,1080.3669724770643,-26.146788990825687,-17.431192660550458,,
1760475859.2427452,0,-0.9527587890625,0.12432861328125,0.1253662109375,9.396946564885496,-152.42748091603053,-25.41221374045801,751.559633027523,-25.779816513761467,-16.14678899082569,,
1760475859.264063,0,-0.95257568359375,0.1243896484375,0.12530517578125,9.427480916030534,-166.10687022900763,-44.954198473282446,657.6146788990826,-25.59633027522936,-16.51376146788991,,
1760475859.2747183,0,-0.95245361328125,0.124267578125,0.12542724609375,9.435114503816791,-144.61068702290078,-15.641221374045802,422.7522935779817,-25.321100917431195,-16.51376146788991,,
1760475859.296059,0,-0.9522705078125,0.12420654296875,0.1253662109375,9.419847328244275,-138.74809160305344,-27.366412213740457,516.6972477064221,-26.146788990825687,-16.51376146788991,,
1760475859.3069098,0,-0.9521484375,0.1243896484375,0.12530517578125,9.419847328244275,-150.4732824427481,-58.63358778625954,587.1559633027523,-25.412844036697248,-17.79816513761468,,
1760475859.3387978,0,-0.95196533203125,0.1243896484375,0.1253662109375,9.404580152671755,-134.83969465648855,-37.13740458015267,634.1284403669725,-25.412844036697248,-16.788990825688074,,
1760475859.370607,0,-0.95184326171875,0.12420654296875,0.1253662109375,9.404580152671755,-132.8854961832061,-41.045801526717554,563.6697247706422,-25.137614678899084,-16.788990825688074,,
1760475859.381287,0,-0.95166015625,0.1243896484375,0.1253662109375,9.412213740458014,-142.65648854961833,-9.778625954198471,798.5321100917431,-25.871559633027523,-16.69724770642202,,
1760475859.3920326,0,-0.9515380859375,0.12432861328125,0.12548828125,9.442748091603054,-136.793893129771,-33.229007633587784,915.9633027522935,-25.779816513761467,-16.14678899082569,,
1760475859.4027932,0,-0.95135498046875,0.12432861328125,0.1253662109375,9.419847328244275,-156.33587786259542,-46.908396946564885,657.6146788990826,-25.779816513761467,-17.06422018348624,,
1760475859.4242568,0,-0.95123291015625,0.12432861328125,0.12542724609375,9.412213740458014,-156.33587786259542,-44.954198473282446,540.1834862385322,-25.504587155963304,-17.339449541284406,,
1760475859.4559314,0,-0.9510498046875,0.12432861328125,0.1253662109375,9.412213740458014,-136.793893129771,-46.908396946564885,704.5871559633028,-25.59633027522936,-16.788990825688074,,
1760475859.4666717,0,-0.950927734375,0.12432861328125,0.12530517578125,9.435114503816791,-168.06106870229007,-43.0,681.1009174311927,-25.963302752293576,-16.972477064220186,,
1760475859.4878647,0,-0.95074462890625,0.124267578125,0.12542724609375,9.412213740458014,-171.96946564885496,-21.50381679389313,610.6422018348624,-26.055045871559635,-16.788990825688074,,
1760475859.49831,0,-0.95062255859375,0.124267578125,0.1253662109375,9.450381679389311,-173.9236641221374,-33.229007633587784,822.0183486238533,-25.412844036697248,-16.972477064220186,,
1760475859.5297325,0,-0.950439453125,0.1243896484375,0.12542724609375,9.427480916030534,-128.9770992366412,-37.13740458015267,516.6972477064221,-25.963302752293576,-16.88073394495413,,
1760475859.5613573,0,-0.9503173828125,0.124267578125,0.12542724609375,9.419847328244275,-146.5648854961832,-41.045801526717554,775.045871559633,-25.321100917431195,-16.972477064220186,,
1760475859.572052,0,-0.95013427734375,0.1243896484375,0.12530517578125,9.427480916030534,-150.4732824427481,-25.41221374045801,446.2385321100918,-25.59633027522936,-17.06422018348624,,
1760475859.5933113,0,-0.95001220703125,0.12432861328125,0.125244140625,9.412213740458014,-168.06106870229007,-25.41221374045801,657.6146788990826,-25.321100917431195,-16.69724770642202,,
1760475859.6250043,0,-0.9498291015625,0.124267578125,0.12530517578125,9.419847328244275,-158.29007633587787,-9.778625954198471,469.72477064220186,-25.412844036697248,-16.238532110091743,,
1760475859.6357515,0,-0.94970703125,0.1243896484375,0.1253662109375,9.412213740458014,-134.83969465648855,-35.18320610687023,822.0183486238533,-25.871559633027523,-16.88073394495413,,
1760475859.65703,0,-0.94952392578125,0.12445068359375,0.12548828125,9.427480916030534,-123.1145038167939,0.0,728.0733944954129,-25.045871559633028,-16.055045871559635,,
1760475859.6676726,0,-0.94940185546875,0.124267578125,0.1253662109375,9.419847328244275,-164.15267175572518,-41.045801526717554,563.6697247706422,-25.504587155963304,-17.431192660550458,,
1760475859.6783247,0,-0.94921875,0.1243896484375,0.1253662109375,9.435114503816791,-121.16030534351144,-7.824427480916031,657.6146788990826,-25.412844036697248,-16.605504587155963,,
1760475859.7101064,0,-0.9490966796875,0.1243896484375,0.12530517578125,9.427480916030534,-162.19847328244273,-27.366412213740457,328.8073394495413,-24.86238532110092,-16.238532110091743,,
1760475859.720717,0,-0.94891357421875,0.124267578125,0.12542724609375,9.412213740458014,-144.61068702290078,-50.81679389312977,610.6422018348624,-26.055045871559635,-17.06422018348624,,
1760475859.7416356,0,-0.94879150390625,0.124267578125,0.12518310546875,9.427480916030534,-142.65648854961833,-15.641221374045802,798.5321100917431,-25.229357798165136,-16.3302752293578,,
1760475859.7521567,0,-0.9486083984375,0.12432861328125,0.12542724609375,9.419847328244275,-187.6030534351145,-43.0,563.6697247706422,-25.59633027522936,-17.431192660550458,,
1760475859.7835069,0,-0.948486328125,0.1243896484375,0.1253662109375,9.427480916030534,-134.83969465648855,-29.3206106870229,892.4770642201836,-25.045871559633028,-16.972477064220186,,
1760475859.8049457,0,-0.94830322265625,0.12432861328125,0.12530517578125,9.419847328244275,-138.74809160305344,-44.954198473282446,657.6146788990826,-25.137614678899084,-16.69724770642202,,
1760475859.8158052,0,-0.94818115234375,0.12432861328125,0.12542724609375,9.404580152671755,-125.06870229007632,-31.27480916030534,1009.908256880734,-25.412844036697248,-16.605504587155963,,
1760475859.847818,0,-0.947998046875,0.12432861328125,0.1253662109375,9.435114503816791,-130.93129770992363,-50.81679389312977,587.1559633027523,-25.412844036697248,-16.88073394495413,,
1760475859.8690877,0,-0.9478759765625,0.1243896484375,0.12542724609375,9.435114503816791,-121.16030534351144,-43.0,892.4770642201836,-25.963302752293576,-16.88073394495413,,
1760475859.879751,0,-0.94769287109375,0.12432861328125,0.1253662109375,9.412213740458014,-148.51908396946564,-50.81679389312977,728.0733944954129,-25.137614678899084,-16.51376146788991,,
1760475859.9009492,0,-0.94757080078125,0.12445068359375,0.1253662109375,9.427480916030534,-154.38167938931298,-41.045801526717554,704.5871559633028,-25.137614678899084,-17.339449541284406,,
1760475859.911814,0,-0.9473876953125,0.12432861328125,0.1253662109375,9.412213740458014,-156.33587786259542,-25.41221374045801,681.1009174311927,-25.779816513761467,-16.972477064220186,,
1760475859.9435723,0,-0.947265625,0.1243896484375,0.125244140625,9.404580152671755,-142.65648854961833,-48.86259541984733,563.6697247706422,-25.68807339449541,-16.14678899082569,,
1760475859.975366,0,-0.94708251953125,0.1243896484375,0.12542724609375,9.427480916030534,-142.65648854961833,-27.366412213740457,939.4495412844036,-25.504587155963304,-16.972477064220186,,
1760475859.9860408,0,-0.94696044921875,0.1243896484375,0.12530517578125,9.442748091603054,-175.87786259541986,-33.229007633587784,305.3211009174312,-25.412844036697248,-16.788990825688074,,
1760475860.007312,0,-0.94677734375,0.1243896484375,0.1253662109375,9.419847328244275,-158.29007633587787,-11.732824427480915,610.6422018348624,-25.412844036697248,-17.339449541284406,,
1760475860.0388546,0,-0.9466552734375,0.124267578125,0.12542724609375,9.427480916030534,-140.70229007633588,-23.45801526717557,610.6422018348624,-24.678899082568808,-17.339449541284406,,
1760475860.0495164,0,-0.94647216796875,0.124267578125,0.125244140625,9.412213740458014,-127.02290076335878,1.954198473282443,516.6972477064221,-25.59633027522936,-16.788990825688074,,
1760475860.0712502,0,-0.94635009765625,0.1243896484375,0.12542724609375,9.427480916030534,-166.10687022900763,-68.40458015267176,399.2660550458716,-25.045871559633028,-16.51376146788991,,
1760475860.0821378,0,-0.9461669921875,0.12420654296875,0.125244140625,9.412213740458014,-154.38167938931298,-37.13740458015267,540.1834862385322,-25.871559633027523,-16.972477064220186,,
1760475860.1037097,0,-0.946044921875,0.1243896484375,0.125244140625,9.412213740458014,-140.70229007633588,-48.86259541984733,728.0733944954129,-25.963302752293576,-16.788990825688074,,
1760475860.1142223,0,-0.94586181640625,0.124267578125,0.12542724609375,9.427480916030534,-134.83969465648855,-37.13740458015267,775.045871559633,-25.045871559633028,-17.155963302752294,,
1760475860.1352232,0,-0.94573974609375,0.1243896484375,0.12542724609375,9.427480916030534,-152.42748091603053,-9.778625954198471,1056.8807339449545,-25.504587155963304,-16.51376146788991,,
1760475860.1669092,0,-0.945556640625,0.12445068359375,0.1253662109375,9.435114503816791,-179.78625954198472,-39.09160305343512,375.7798165137615,-25.137614678899084,-17.155963302752294,,
1760475860.177797,0,-0.9454345703125,0.12432861328125,0.12542724609375,9.404580152671755,-166.10687022900763,-13.687022900763358,446.2385321100918,-25.59633027522936,-17.06422018348624,,
1760475860.1987393,0,-0.94525146484375,0.124267578125,0.1253662109375,9.435114503816791,-154.38167938931298,-41.045801526717554,657.6146788990826,-25.412844036697248,-16.51376146788991,,
1760475860.209197,0,-0.94512939453125,0.12445068359375,0.1253662109375,9.427480916030534,-160.24427480916032,-31.27480916030534,469.72477064220186,-25.779816513761467,-16.605504587155963,,
1760475860.2302752,0,-0.9449462890625,0.124267578125,0.1253662109375,9.419847328244275,-144.61068702290078,-39.09160305343512,657.6146788990826,-25.504587155963304,-17.155963302752294,,
1760475860.2619832,0,-0.94482421875,0.124267578125,0.12530517578125,9.419847328244275,-179.78625954198472,-60.58778625954199,375.7798165137615,-25.963302752293576,-17.522935779816514,,
1760475860.2831528,0,-0.94464111328125,0.124267578125,0.1253662109375,9.412213740458014,-142.65648854961833,-29.3206106870229,446.2385321100918,-25.779816513761467,-16.422018348623855,,
1760475860.2937982,0,-0.94451904296875,0.124267578125,0.12548828125,9.412213740458014,-140.70229007633588,-46.908396946564885,540.1834862385322,-25.504587155963304,-16.788990825688074,,
1760475860.3148649,0,-0.9443359375,0.1243896484375,0.12530517578125,9.419847328244275,-140.70229007633588,-39.09160305343512,610.6422018348624,-25.59633027522936,-16.69724770642202,,
1760475860.325625,0,-0.9442138671875,0.12432861328125,0.1253662109375,9.435114503816791,-152.42748091603053,-33.229007633587784,540.1834862385322,-25.68807339449541,-16.605504587155963,,
1760475860.3469064,0,-0.94403076171875,0.12432861328125,0.1253662109375,9.419847328244275,-170.01526717557252,-33.229007633587784,399.2660550458716,-24.86238532110092,-16.972477064220186,,
1760475860.3788097,0,-0.94390869140625,0.124267578125,0.1253662109375,9.404580152671755,-125.06870229007632,-19.549618320610687,681.1009174311927,-25.412844036697248,-16.51376146788991,,
1760475860.389556,0,-0.9437255859375,0.124267578125,0.12542724609375,9.427480916030534,-156.33587786259542,0.0,657.6146788990826,-26.238532110091743,-16.972477064220186,,
1760475860.4108176,0,-0.943603515625,0.12432861328125,0.125244140625,9.419847328244275,-142.65648854961833,-39.09160305343512,681.1009174311927,-25.963302752293576,-16.972477064220186,,
1760475860.4425385,0,-0.94342041015625,0.1243896484375,0.1253662109375,9.412213740458014,-150.4732824427481,-37.13740458015267,657.6146788990826,-25.321100917431195,-16.788990825688074,,
1760475860.4534934,0,-0.94329833984375,0.12432861328125,0.1253662109375,9.412213740458014,-173.9236641221374,-25.41221374045801,610.6422018348624,-25.321100917431195,-17.06422018348624,,
1760475860.474454,0,-0.943115234375,0.12432861328125,0.12542724609375,9.427480916030534,-134.83969465648855,-44.954198473282446,681.1009174311927,-24.4954128440367,-16.972477064220186,,
1760475860.4852765,0,-0.9429931640625,0.12432861328125,0.12542724609375,9.412213740458014,-136.793893129771,-41.045801526717554,892.4770642201836,-25.412844036697248,-17.06422018348624,,
1760475860.5064733,0,-0.94281005859375,0.12420654296875,0.125244140625,9.427480916030534,-119.206106870229,-15.641221374045802,540.1834862385322,-26.055045871559635,-15.96330275229358,,
1760475860.517841,0,-0.94268798828125,0.12432861328125,0.12542724609375,9.412213740458014,-156.33587786259542,-50.81679389312977,681.1009174311927,-25.321100917431195,-16.69724770642202,,
1760475860.539214,0,-0.9425048828125,0.124267578125,0.1253662109375,9.427480916030534,-158.29007633587787,-52.770992366412216,704.5871559633028,-25.779816513761467,-16.88073394495413,,
1760475860.571049,0,-0.9423828125,0.12445068359375,0.1253662109375,9.419847328244275,-127.02290076335878,-68.40458015267176,469.72477064220186,-25.504587155963304,-16.605504587155963,,
1760475860.6025417,0,-0.94219970703125,0.12432861328125,0.12530517578125,9.427480916030534,-148.51908396946564,-50.81679389312977,587.1559633027523,-25.504587155963304,-17.522935779816514,,
1760475860.6133063,0,-0.94207763671875,0.12432861328125,0.12518310546875,9.412213740458014,-166.10687022900763,-15.641221374045802,868.9908256880734,-26.146788990825687,-17.155963302752294,,
1760475860.6345496,0,-0.94189453125,0.12432861328125,0.12548828125,9.419847328244275,-166.10687022900763,-29.3206106870229,775.045871559633,-26.055045871559635,-17.155963302752294,,
1760475860.645273,0,-0.9417724609375,0.124267578125,0.12542724609375,9.427480916030534,-175.87786259541986,-52.770992366412216,446.2385321100918,-25.321100917431195,-17.155963302752294,,
1760475860.6667058,0,-0.94158935546875,0.12432861328125,0.12530517578125,9.412213740458014,-144.61068702290078,-72.31297709923665,305.3211009174312,-25.321100917431195,-17.06422018348624,,
1760475860.677502,0,-0.94146728515625,0.12432861328125,0.1253662109375,9.419847328244275,-140.70229007633588,-66.45038167938931,563.6697247706422,-25.59633027522936,-17.155963302752294,,
1760475860.7002654,0,-0.9412841796875,0.1243896484375,0.125244140625,9.404580152671755,-136.793893129771,-50.81679389312977,868.9908256880734,-24.95412844036697,-16.972477064220186,,
1760475860.7109146,0,-0.941162109375,0.12432861328125,0.125244140625,9.419847328244275,-144.61068702290078,-11.732824427480915,587.1559633027523,-25.68807339449541,-17.24770642201835,,
1760475860.7421937,0,-0.94097900390625,0.12432861328125,0.12542724609375,9.404580152671755,-162.19847328244273,-31.27480916030534,845.5045871559633,-26.330275229357795,-16.3302752293578,,
1760475860.7739303,0,-0.94085693359375,0.12432861328125,0.12542724609375,9.427480916030534,-123.1145038167939,-48.86259541984733,798.5321100917431,-26.330275229357795,-16.88073394495413,,
1760475860.784701,0,-0.940673828125,0.12432861328125,0.1253662109375,9.435114503816791,-146.5648854961832,-39.09160305343512,751.559633027523,-25.68807339449541,-16.14678899082569,,
1760475860.806142,0,-0.9405517578125,0.1243896484375,0.1253662109375,9.427480916030534,-164.15267175572518,-11.732824427480915,610.6422018348624,-25.321100917431195,-17.431192660550458,,
1760475860.8169975,0,-0.94036865234375,0.12420654296875,0.1253662109375,9.427480916030534,-148.51908396946564,-56.6793893129771,892.4770642201836,-25.137614678899084,-17.06422018348624,,
1760475860.8279774,0,-0.94024658203125,0.124267578125,0.1253662109375,9.419847328244275,-168.06106870229007,-46.908396946564885,328.8073394495413,-25.137614678899084,-16.972477064220186,,
1760475860.8598409,0,-0.9400634765625,0.12432861328125,0.12530517578125,9.419847328244275,-144.61068702290078,-39.09160305343512,728.0733944954129,-25.412844036697248,-16.88073394495413,,
1760475860.8705125,0,-0.93994140625,0.1243896484375,0.12530517578125,9.419847328244275,-152.42748091603053,-11.732824427480915,587.1559633027523,-25.779816513761467,-16.3302752293578,,
1760475860.8917456,0,-0.93975830078125,0.1243896484375,0.1253662109375,9.427480916030534,-175.87786259541986,-68.40458015267176,704.5871559633028,-25.779816513761467,-16.14678899082569,,
1760475860.9232342,0,-0.93963623046875,0.12432861328125,0.1253662109375,9.427480916030534,-136.793893129771,-56.6793893129771,375.7798165137615,-25.321100917431195,-16.88073394495413,,
1760475860.9549596,0,-0.939453125,0.12432861328125,0.12554931640625,9.427480916030534,-156.33587786259542,-19.549618320610687,399.2660550458716,-25.045871559633028,-17.24770642201835,,
1760475860.9658022,0,-0.9393310546875,0.12432861328125,0.12530517578125,9.427480916030534,-136.793893129771,-78.17557251908397,587.1559633027523,-25.504587155963304,-17.06422018348624,,
1760475860.98726,0,-0.93914794921875,0.1243896484375,0.12530517578125,9.427480916030534,-136.793893129771,-3.916030534351145,634.1284403669725,-25.68807339449541,-16.88073394495413,,
1760475860.9981492,0,-0.93902587890625,0.12432861328125,0.12542724609375,9.427480916030534,-156.33587786259542,-74.26717557251908,892.4770642201836,-25.321100917431195,-16.788990825688074,,
1760475861.0195,0,-0.9388427734375,0.1243896484375,0.1253662109375,9.412213740458014,-156.33587786259542,-39.09160305343512,775.045871559633,-24.587155963302752,-16.51376146788991,,
1760475861.030268,0,-0.938720703125,0.12432861328125,0.1253662109375,9.404580152671755,-166.10687022900763,-50.81679389312977,469.72477064220186,-25.59633027522936,-17.339449541284406,,
1760475861.0515645,0,-0.93853759765625,0.124267578125,0.12542724609375,9.427480916030534,-162.19847328244273,-33.229007633587784,986.422018348624,-25.59633027522936,-16.3302752293578,,
1760475861.062436,0,-0.93841552734375,0.124267578125,0.12542724609375,9.404580152671755,-175.87786259541986,-11.732824427480915,634.1284403669725,-25.229357798165136,-16.972477064220186,,
1760475861.0837789,0,-0.938232421875,0.1243896484375,0.1253662109375,9.435114503816791,-181.7404580152672,-9.778625954198471,540.1834862385322,-25.229357798165136,-16.422018348623855,,
1760475861.11561,0,-0.9381103515625,0.124267578125,0.12530517578125,9.427480916030534,-150.4732824427481,-44.954198473282446,610.6422018348624,-25.412844036697248,-16.605504587155963,,
1760475861.1264577,0,-0.93792724609375,0.12432861328125,0.125244140625,9.442748091603054,-146.5648854961832,-31.27480916030534,540.1834862385322,-25.504587155963304,-16.788990825688074,,
1760475861.1476336,0,-0.93780517578125,0.124267578125,0.1253662109375,9.412213740458014,-166.10687022900763,-17.595419847328245,775.045871559633,-26.69724770642202,-16.69724770642202,,
1760475861.17953,0,-0.9376220703125,0.1243896484375,0.12542724609375,9.412213740458014,-125.06870229007632,-43.0,751.559633027523,-26.238532110091743,-16.972477064220186,,
1760475861.19019,0,-0.9375,0.124267578125,0.1253662109375,9.419847328244275,-136.793893129771,-37.13740458015267,469.72477064220186,-25.137614678899084,-17.06422018348624,,
1760475861.2114997,0,-0.93731689453125,0.1243896484375,0.1253662109375,9.427480916030534,-168.06106870229007,-43.0,728.0733944954129,-25.504587155963304,-16.972477064220186,,
1760475861.2223382,0,-0.93719482421875,0.12432861328125,0.12542724609375,9.435114503816791,-166.10687022900763,-31.27480916030534,751.559633027523,-26.146788990825687,-16.69724770642202,,
1760475861.2437637,0,-0.93701171875,0.124267578125,0.1253662109375,9.442748091603054,-132.8854961832061,-35.18320610687023,681.1009174311927,-26.146788990825687,-16.788990825688074,,
1760475861.275459,0,-0.9368896484375,0.12432861328125,0.1253662109375,9.427480916030534,-123.1145038167939,-33.229007633587784,704.5871559633028,-25.504587155963304,-16.88073394495413,,
1760475861.2862537,0,-0.93670654296875,0.12432861328125,0.1253662109375,9.412213740458014,-156.33587786259542,-1.9618320610687023,868.9908256880734,-25.137614678899084,-17.06422018348624,,
1760475861.307566,0,-0.93658447265625,0.12432861328125,0.1253662109375,9.427480916030534,-142.65648854961833,-27.366412213740457,587.1559633027523,-26.055045871559635,-17.155963302752294,,
1760475861.339404,0,-0.9364013671875,0.12432861328125,0.12530517578125,9.435114503816791,-136.793893129771,-27.366412213740457,681.1009174311927,-25.229357798165136,-16.69724770642202,,
1760475861.3500874,0,-0.936279296875,0.12432861328125,0.1253662109375,9.427480916030534,-127.02290076335878,-41.045801526717554,563.6697247706422,-25.963302752293576,-16.88073394495413,,
1760475861.3714416,0,-0.93609619140625,0.124267578125,0.1253662109375,9.427480916030534,-179.78625954198472,-76.22137404580153,587.1559633027523,-25.963302752293576,-16.422018348623855,,
1760475861.3822043,0,-0.93597412109375,0.124267578125,0.1253662109375,9.412213740458014,-142.65648854961833,-33.229007633587784,681.1009174311927,-25.321100917431195,-16.972477064220186,,
1760475861.4035225,0,-0.935791015625,0.1243896484375,0.1253662109375,9.412213740458014,-128.9770992366412,-33.229007633587784,892.4770642201836,-25.412844036697248,-16.972477064220186,,
1760475861.4352937,0,-0.9356689453125,0.12432861328125,0.12548828125,9.412213740458014,-146.5648854961832,-50.81679389312977,962.9357798165138,-25.412844036697248,-16.972477064220186,,
1760475861.4460363,0,-0.93548583984375,0.12432861328125,0.125244140625,9.435114503816791,-144.61068702290078,-5.870229007633588,446.2385321100918,-25.321100917431195,-16.972477064220186,,
1760475861.4674656,0,-0.93536376953125,0.124267578125,0.12554931640625,9.427480916030534,-148.51908396946564,-33.229007633587784,681.1009174311927,-25.321100917431195,-16.788990825688074,,
1760475861.499318,0,-0.9351806640625,0.124267578125,0.125244140625,9.427480916030534,-168.06106870229007,-27.366412213740457,516.6972477064221,-25.68807339449541,-16.422018348623855,,
1760475861.5100513,0,-0.93505859375,0.12432861328125,0.12542724609375,9.404580152671755,-166.10687022900763,-46.908396946564885,610.6422018348624,-25.137614678899084,-16.972477064220186,,
1760475861.53172,0,-0.93487548828125,0.124267578125,0.12548828125,9.435114503816791,-148.51908396946564,-50.81679389312977,610.6422018348624,-25.045871559633028,-17.24770642201835,,
1760475861.5424185,0,-0.93475341796875,0.124267578125,0.12542724609375,9.427480916030534,-134.83969465648855,0.0,892.4770642201836,-25.045871559633028,-16.51376146788991,,
1760475861.5637076,0,-0.9345703125,0.1243896484375,0.12530517578125,9.412213740458014,-179.78625954198472,-43.0,446.2385321100918,-25.321100917431195,-17.431192660550458,,
1760475861.5852196,0,-0.9344482421875,0.12420654296875,0.12530517578125,9.412213740458014,-115.29770992366412,-27.366412213740457,798.5321100917431,-25.68807339449541,-17.155963302752294,,
1760475861.5959718,0,-0.93426513671875,0.12432861328125,0.1253662109375,9.404580152671755,-138.74809160305344,-54.725190839694655,399.2660550458716,-25.045871559633028,-16.605504587155963,,
1760475861.6172352,0,-0.93414306640625,0.12432861328125,0.1253662109375,9.419847328244275,-154.38167938931298,-66.45038167938931,775.045871559633,-25.963302752293576,-17.155963302752294,,
1760475861.6280794,0,-0.9339599609375,0.12432861328125,0.1253662109375,9.435114503816791,-162.19847328244273,-35.18320610687023,681.1009174311927,-25.504587155963304,-16.055045871559635,,
1760475861.6494353,0,-0.933837890625,0.1243896484375,0.125244140625,9.419847328244275,-158.29007633587787,-37.13740458015267,23.486238532110093,-25.59633027522936,-17.06422018348624,,
1760475861.6813445,0,-0.93365478515625,0.1243896484375,0.12542724609375,9.404580152671755,-181.7404580152672,-44.954198473282446,775.045871559633,-25.59633027522936,-17.431192660550458,,
1760475861.692071,0,-0.93353271484375,0.12432861328125,0.12548828125,9.412213740458014,-158.29007633587787,-37.13740458015267,587.1559633027523,-25.59633027522936,-16.788990825688074,,
1760475861.7133782,0,-0.933349609375,0.12432861328125,0.125244140625,9.404580152671755,-171.96946564885496,-58.63358778625954,822.0183486238533,-25.412844036697248,-17.155963302752294,,
1760475861.7451763,0,-0.9332275390625,0.1243896484375,0.12530517578125,9.404580152671755,-148.51908396946564,-23.45801526717557,751.559633027523,-25.045871559633028,-16.422018348623855,,
1760475861.7559276,0,-0.93304443359375,0.12432861328125,0.1253662109375,9.419847328244275,-189.55725190839692,-39.09160305343512,540.1834862385322,-25.59633027522936,-17.06422018348624,,
1760475861.777273,0,-0.93292236328125,0.12432861328125,0.1253662109375,9.427480916030534,-162.19847328244273,-54.725190839694655,845.5045871559633,-25.229357798165136,-16.788990825688074,,
1760475861.7881012,0,-0.9327392578125,0.124267578125,0.12530517578125,9.419847328244275,-146.5648854961832,-33.229007633587784,681.1009174311927,-24.95412844036697,-16.972477064220186,,
1760475861.8094175,0,-0.9326171875,0.1243896484375,0.1253662109375,9.435114503816791,-148.51908396946564,-54.725190839694655,469.72477064220186,-24.770642201834864,-16.88073394495413,,
1760475861.8412862,0,-0.93243408203125,0.12432861328125,0.12542724609375,9.419847328244275,-125.06870229007632,-35.18320610687023,422.7522935779817,-26.42201834862385,-16.88073394495413,,
1760475861.852002,0,-0.93231201171875,0.124267578125,0.1253662109375,9.412213740458014,-144.61068702290078,-35.18320610687023,915.9633027522935,-25.59633027522936,-16.69724770642202,,
1760475861.8734071,0,-0.93212890625,0.124267578125,0.12542724609375,9.427480916030534,-136.793893129771,-35.18320610687023,822.0183486238533,-24.86238532110092,-16.3302752293578,,
1760475861.9053776,0,-0.9320068359375,0.12432861328125,0.12542724609375,9.435114503816791,-146.5648854961832,-46.908396946564885,822.0183486238533,-25.412844036697248,-17.339449541284406,,
1760475861.916181,0,-0.93182373046875,0.12432861328125,0.12530517578125,9.427480916030534,-130.93129770992363,-21.50381679389313,516.6972477064221,-25.045871559633028,-17.339449541284406,,
1760475861.937509,0,-0.93170166015625,0.12432861328125,0.12554931640625,9.396946564885496,-146.5648854961832,-72.31297709923665,775.045871559633,-25.321100917431195,-16.605504587155963,,
1760475861.969394,0,-0.9315185546875,0.124267578125,0.125244140625,9.419847328244275,-173.9236641221374,-29.3206106870229,540.1834862385322,-25.59633027522936,-16.51376146788991,,
1760475861.9801848,0,-0.931396484375,0.12432861328125,0.1253662109375,9.419847328244275,-144.61068702290078,-46.908396946564885,634.1284403669725,-25.963302752293576,-16.605504587155963,,
1760475862.001511,0,-0.93121337890625,0.1243896484375,0.1253662109375,9.419847328244275,-119.206106870229,-7.824427480916031,493.2110091743119,-25.137614678899084,-16.788990825688074,,
1760475862.0123107,0,-0.93109130859375,0.12432861328125,0.12530517578125,9.396946564885496,-117.25190839694656,-68.40458015267176,469.72477064220186,-25.779816513761467,-16.972477064220186,,
1760475862.0337894,0,-0.930908203125,0.124267578125,0.1253662109375,9.412213740458014,-117.25190839694656,-52.770992366412216,399.2660550458716,-25.137614678899084,-17.155963302752294,,
1760475862.0552807,0,-0.9307861328125,0.12432861328125,0.1253662109375,9.412213740458014,-132.8854961832061,-29.3206106870229,962.9357798165138,-24.86238532110092,-17.339449541284406,,
1760475862.0661216,0,-0.93060302734375,0.1243896484375,0.12530517578125,9.419847328244275,-152.42748091603053,-70.3587786259542,540.1834862385322,-25.412844036697248,-17.155963302752294,,
1760475862.0874343,0,-0.93048095703125,0.124267578125,0.12542724609375,9.442748091603054,-152.42748091603053,-19.549618320610687,681.1009174311927,-26.238532110091743,-16.3302752293578,,
1760475862.09819,0,-0.9302978515625,0.124267578125,0.12530517578125,9.396946564885496,-140.70229007633588,-35.18320610687023,986.422018348624,-25.68807339449541,-16.788990825688074,,
1760475862.1194408,0,-0.93017578125,0.1243896484375,0.1253662109375,9.412213740458014,-160.24427480916032,-9.778625954198471,634.1284403669725,-25.045871559633028,-16.69724770642202,,
1760475862.151253,0,-0.92999267578125,0.124267578125,0.12530517578125,9.412213740458014,-158.29007633587787,-25.41221374045801,681.1009174311927,-25.229357798165136,-17.61467889908257,,
1760475862.1619678,0,-0.92987060546875,0.12432861328125,0.12542724609375,9.419847328244275,-154.38167938931298,-50.81679389312977,657.6146788990826,-25.59633027522936,-16.972477064220186,,
1760475862.183288,0,-0.9296875,0.12432861328125,0.12530517578125,9.419847328244275,-152.42748091603053,-31.27480916030534,798.5321100917431,-25.321100917431195,-17.06422018348624,,
1760475862.215043,0,-0.9295654296875,0.124267578125,0.125244140625,9.412213740458014,-138.74809160305344,-29.3206106870229,1009.908256880734,-25.871559633027523,-16.972477064220186,,
1760475862.2256298,0,-0.92938232421875,0.12432861328125,0.12530517578125,9.412213740458014,-113.34351145038168,-15.641221374045802,610.6422018348624,-25.412844036697248,-16.972477064220186,,
1760475862.2468812,0,-0.92926025390625,0.12432861328125,0.12542724609375,9.404580152671755,-164.15267175572518,-37.13740458015267,493.2110091743119,-25.68807339449541,-16.3302752293578,,
1760475862.25775,0,-0.9290771484375,0.12420654296875,0.1253662109375,9.419847328244275,-144.61068702290078,-31.27480916030534,493.2110091743119,-25.59633027522936,-17.431192660550458,,
1760475862.2790306,0,-0.928955078125,0.124267578125,0.12542724609375,9.435114503816791,-132.8854961832061,-43.0,751.559633027523,-25.412844036697248,-16.605504587155963,,
1760475862.3109562,0,-0.92877197265625,0.12432861328125,0.125244140625,9.419847328244275,-136.793893129771,-25.41221374045801,775.045871559633,-25.504587155963304,-16.788990825688074,,
1760475862.3216033,0,-0.92864990234375,0.1243896484375,0.1253662109375,9.419847328244275,-115.29770992366412,-50.81679389312977,493.2110091743119,-24.86238532110092,-16.88073394495413,,
1760475862.343027,0,-0.928466796875,0.124267578125,0.1253662109375,9.419847328244275,-117.25190839694656,-33.229007633587784,610.6422018348624,-25.045871559633028,-17.06422018348624,,
1760475862.374936,0,-0.9283447265625,0.124267578125,0.12530517578125,9.419847328244275,-173.9236641221374,-43.0,868.9908256880734,-25.412844036697248,-16.972477064220186,,
1760475862.3856423,0,-0.92816162109375,0.12432861328125,0.12530517578125,9.435114503816791,-132.8854961832061,-66.45038167938931,822.0183486238533,-25.412844036697248,-17.522935779816514,,
1760475862.407038,0,-0.92803955078125,0.124267578125,0.1253662109375,9.427480916030534,-138.74809160305344,-52.770992366412216,751.559633027523,-25.68807339449541,-17.24770642201835,,
1760475862.4178593,0,-0.9278564453125,0.1243896484375,0.12530517578125,9.412213740458014,-117.25190839694656,-89.90076335877863,986.422018348624,-25.321100917431195,-16.788990825688074,,
1760475862.4392653,0,-0.927734375,0.124267578125,0.12542724609375,9.404580152671755,-173.9236641221374,-19.549618320610687,845.5045871559633,-25.504587155963304,-17.06422018348624,,
1760475862.470901,0,-0.92755126953125,0.12432861328125,0.12542724609375,9.419847328244275,-168.06106870229007,-80.12977099236642,540.1834862385322,-25.229357798165136,-17.339449541284406,,
1760475862.4816034,0,-0.92742919921875,0.12432861328125,0.12548828125,9.427480916030534,-185.6488549618321,-23.45801526717557,751.559633027523,-25.321100917431195,-16.972477064220186,,
1760475862.502927,0,-0.92724609375,0.12432861328125,0.12542724609375,9.404580152671755,-134.83969465648855,-60.58778625954199,868.9908256880734,-25.229357798165136,-16.69724770642202,,
1760475862.5348697,0,-0.9271240234375,0.12432861328125,0.12542724609375,9.419847328244275,-142.65648854961833,-46.908396946564885,610.6422018348624,-25.229357798165136,-17.155963302752294,,
1760475862.5456908,0,-0.92694091796875,0.124267578125,0.12542724609375,9.404580152671755,-156.33587786259542,-44.954198473282446,892.4770642201836,-25.412844036697248,-16.51376146788991,,
1760475862.567023,0,-0.92681884765625,0.12432861328125,0.125244140625,9.404580152671755,-136.793893129771,-29.3206106870229,634.1284403669725,-25.321100917431195,-16.69724770642202,,
1760475862.57784,0,-0.9266357421875,0.12420654296875,0.1253662109375,9.412213740458014,-168.06106870229007,-52.770992366412216,563.6697247706422,-25.321100917431195,-16.88073394495413,,
1760475862.5886917,0,-0.926513671875,0.124267578125,0.1253662109375,9.412213740458014,-128.9770992366412,-15.641221374045802,540.1834862385322,-25.59633027522936,-17.06422018348624,,
1760475862.620562,0,-0.92633056640625,0.12432861328125,0.12542724609375,9.412213740458014,-113.34351145038168,-62.54198473282442,728.0733944954129,-25.229357798165136,-17.522935779816514,,
1760475862.6313388,0,-0.92620849609375,0.12432861328125,0.12542724609375,9.435114503816791,-152.42748091603053,-60.58778625954199,657.6146788990826,-25.504587155963304,-17.431192660550458,,
1760475862.6527278,0,-0.926025390625,0.12432861328125,0.12542724609375,9.419847328244275,-156.33587786259542,-64.49618320610686,915.9633027522935,-25.779816513761467,-16.69724770642202,,
1760475862.6846132,0,-0.9259033203125,0.124267578125,0.12530517578125,9.419847328244275,-127.02290076335878,-44.954198473282446,258.34862385321105,-25.504587155963304,-16.788990825688074,,
1760475862.6954136,0,-0.92572021484375,0.1243896484375,0.125244140625,9.427480916030534,-130.93129770992363,-50.81679389312977,775.045871559633,-26.146788990825687,-17.06422018348624,,
1760475862.716871,0,-0.92559814453125,0.12445068359375,0.12530517578125,9.404580152671755,-142.65648854961833,-11.732824427480915,493.2110091743119,-26.42201834862385,-16.69724770642202,,
1760475862.7277746,0,-0.9254150390625,0.12432861328125,0.12542724609375,9.412213740458014,-138.74809160305344,-29.3206106870229,634.1284403669725,-25.412844036697248,-17.431192660550458,,
1760475862.74907,0,-0.92529296875,0.1243896484375,0.1253662109375,9.419847328244275,-154.38167938931298,-74.26717557251908,352.2935779816514,-25.412844036697248,-16.788990825688074,,
1760475862.7600317,0,-0.92510986328125,0.12432861328125,0.12542724609375,9.427480916030534,-148.51908396946564,-50.81679389312977,915.9633027522935,-25.137614678899084,-17.155963302752294,,
1760475862.7919278,0,-0.92498779296875,0.1243896484375,0.12542724609375,9.419847328244275,-109.4351145038168,-9.778625954198471,845.5045871559633,-25.963302752293576,-16.51376146788991,,
1760475862.8238282,0,-0.9248046875,0.1243896484375,0.12542724609375,9.419847328244275,-142.65648854961833,-29.3206106870229,634.1284403669725,-24.95412844036697,-16.972477064220186,,
1760475862.8346367,0,-0.9246826171875,0.124267578125,0.12530517578125,9.442748091603054,-168.06106870229007,-27.366412213740457,587.1559633027523,-25.59633027522936,-17.06422018348624,,
1760475862.856002,0,-0.92449951171875,0.12420654296875,0.12530517578125,9.412213740458014,-189.55725190839692,-41.045801526717554,516.6972477064221,-26.330275229357795,-16.788990825688074,,
1760475862.887948,0,-0.92437744140625,0.12432861328125,0.12542724609375,9.419847328244275,-162.19847328244273,-27.366412213740457,634.1284403669725,-25.229357798165136,-16.88073394495413,,
1760475862.898743,0,-0.9241943359375,0.12432861328125,0.12542724609375,9.419847328244275,-150.4732824427481,-44.954198473282446,587.1559633027523,-25.504587155963304,-16.788990825688074,,
1760475862.9202187,0,-0.924072265625,0.12432861328125,0.125244140625,9.419847328244275,-158.29007633587787,-56.6793893129771,375.7798165137615,-25.59633027522936,-16.238532110091743,,
1760475862.9519422,0,-0.92388916015625,0.1243896484375,0.1253662109375,9.427480916030534,-142.65648854961833,-39.09160305343512,634.1284403669725,-25.963302752293576,-16.88073394495413,,
1760475862.9625611,0,-0.92376708984375,0.124267578125,0.12542724609375,9.404580152671755,-168.06106870229007,-56.6793893129771,540.1834862385322,-25.229357798165136,-16.3302752293578,,
1760475862.973296,0,-0.923583984375,0.1243896484375,0.12554931640625,9.419847328244275,-166.10687022900763,-21.50381679389313,681.1009174311927,-24.95412844036697,-17.155963302752294,,
1760475862.984042,0,-0.9234619140625,0.124267578125,0.125244140625,9.419847328244275,-168.06106870229007,-48.86259541984733,422.7522935779817,-25.59633027522936,-16.51376146788991,,
1760475863.0055964,0,-0.92327880859375,0.12432861328125,0.12548828125,9.427480916030534,-197.3740458015267,-46.908396946564885,211.37614678899084,-25.229357798165136,-16.3302752293578,,
1760475863.0164545,0,-0.92315673828125,0.12445068359375,0.12542724609375,9.412213740458014,-127.02290076335878,-64.49618320610686,892.4770642201836,-25.321100917431195,-16.422018348623855,,
1760475863.037941,0,-0.9229736328125,0.1243896484375,0.1253662109375,9.412213740458014,-121.16030534351144,-33.229007633587784,728.0733944954129,-25.045871559633028,-16.788990825688074,,
1760475863.0693862,0,-0.9228515625,0.124267578125,0.12530517578125,9.427480916030534,-156.33587786259542,-52.770992366412216,775.045871559633,-25.229357798165136,-17.24770642201835,,
1760475863.0801468,0,-0.92266845703125,0.12432861328125,0.12542724609375,9.419847328244275,-154.38167938931298,-27.366412213740457,540.1834862385322,-25.779816513761467,-16.788990825688074,,
1760475863.1014702,0,-0.92254638671875,0.1243896484375,0.12542724609375,9.419847328244275,-123.1145038167939,-15.641221374045802,610.6422018348624,-25.68807339449541,-17.06422018348624,,
1760475863.1333492,0,-0.92236328125,0.12432861328125,0.1253662109375,9.427480916030534,-107.48091603053436,-56.6793893129771,704.5871559633028,-25.504587155963304,-16.605504587155963,,
1760475863.1653094,0,-0.9222412109375,0.12432861328125,0.12542724609375,9.412213740458014,-162.19847328244273,-29.3206106870229,587.1559633027523,-25.504587155963304,-16.972477064220186,,
1760475863.176038,0,-0.92205810546875,0.124267578125,0.1253662109375,9.404580152671755,-134.83969465648855,-15.641221374045802,728.0733944954129,-25.871559633027523,-16.51376146788991,,
1760475863.1974409,0,-0.92193603515625,0.12432861328125,0.12554931640625,9.419847328244275,-156.33587786259542,-44.954198473282446,657.6146788990826,-25.412844036697248,-16.972477064220186,,
1760475863.208205,0,-0.9217529296875,0.12432861328125,0.12530517578125,9.419847328244275,-166.10687022900763,-56.6793893129771,822.0183486238533,-25.321100917431195,-17.522935779816514,,
1760475863.2294793,0,-0.921630859375,0.12420654296875,0.12518310546875,9.427480916030534,-164.15267175572518,-46.908396946564885,587.1559633027523,-24.95412844036697,-16.88073394495413,,
1760475863.240318,0,-0.92144775390625,0.12420654296875,0.12542724609375,9.412213740458014,-146.5648854961832,-17.595419847328245,986.422018348624,-25.412844036697248,-17.155963302752294,,
1760475863.2618115,0,-0.92132568359375,0.12432861328125,0.12542724609375,9.419847328244275,-150.4732824427481,-52.770992366412216,681.1009174311927,-25.045871559633028,-16.605504587155963,,
1760475863.2830937,0,-0.921142578125,0.1243896484375,0.12542724609375,9.412213740458014,-148.51908396946564,-46.908396946564885,375.7798165137615,-25.779816513761467,-16.972477064220186,,
1760475863.2936163,0,-0.9210205078125,0.12432861328125,0.1253662109375,9.419847328244275,-164.15267175572518,-23.45801526717557,634.1284403669725,-25.229357798165136,-16.605504587155963,,
1760475863.3146417,0,-0.92083740234375,0.12432861328125,0.1253662109375,9.419847328244275,-146.5648854961832,-60.58778625954199,563.6697247706422,-26.055045871559635,-16.88073394495413,,
1760475863.3465314,0,-0.92071533203125,0.1243896484375,0.12542724609375,9.435114503816791,-105.52671755725191,-52.770992366412216,446.2385321100918,-25.137614678899084,-17.06422018348624,,
1760475863.3573012,0,-0.9205322265625,0.12420654296875,0.1253662109375,9.412213740458014,-187.6030534351145,-19.549618320610687,422.7522935779817,-25.68807339449541,-16.88073394495413,,
1760475863.378635,0,-0.92041015625,0.12432861328125,0.12530517578125,9.427480916030534,-152.42748091603053,-35.18320610687023,211.37614678899084,-25.779816513761467,-16.88073394495413,,
1760475863.3894176,0,-0.92022705078125,0.12445068359375,0.12542724609375,9.412213740458014,-179.78625954198472,-46.908396946564885,493.2110091743119,-25.412844036697248,-16.788990825688074,,
1760475863.4108107,0,-0.92010498046875,0.12432861328125,0.1253662109375,9.419847328244275,-162.19847328244273,-78.17557251908397,845.5045871559633,-25.229357798165136,-16.972477064220186,,
1760475863.442579,0,-0.919921875,0.12432861328125,0.12530517578125,9.442748091603054,-162.19847328244273,-43.0,892.4770642201836,-24.587155963302752,-17.06422018348624,,
1760475863.45337,0,-0.9197998046875,0.12432861328125,0.1253662109375,9.419847328244275,-175.87786259541986,-56.6793893129771,657.6146788990826,-25.412844036697248,-17.06422018348624,,
1760475863.474778,0,-0.91961669921875,0.1243896484375,0.1253662109375,9.419847328244275,-144.61068702290078,-54.725190839694655,751.559633027523,-25.779816513761467,-16.69724770642202,,
1760475863.5066066,0,-0.91949462890625,0.12432861328125,0.1253662109375,9.442748091603054,-136.793893129771,-19.549618320610687,892.4770642201836,-25.229357798165136,-16.422018348623855,,
1760475863.5173995,0,-0.9193115234375,0.124267578125,0.12530517578125,9.419847328244275,-119.206106870229,-35.18320610687023,587.1559633027523,-25.963302752293576,-17.155963302752294,,
1760475863.5389535,0,-0.919189453125,0.124267578125,0.1253662109375,9.427480916030534,-146.5648854961832,-11.732824427480915,375.7798165137615,-25.137614678899084,-16.605504587155963,,
1760475863.5707986,0,-0.91900634765625,0.1243896484375,0.1253662109375,9.419847328244275,-140.70229007633588,-13.687022900763358,704.5871559633028,-25.412844036697248,-17.24770642201835,,
1760475863.5814228,0,-0.91888427734375,0.124267578125,0.12542724609375,9.396946564885496,-138.74809160305344,-44.954198473282446,751.559633027523,-25.229357798165136,-16.605504587155963,,
1760475863.6028657,0,-0.918701171875,0.12432861328125,0.1253662109375,9.442748091603054,-156.33587786259542,-46.908396946564885,493.2110091743119,-25.504587155963304,-16.69724770642202,,
1760475863.6135726,0,-0.9185791015625,0.12432861328125,0.1253662109375,9.427480916030534,-160.24427480916032,-54.725190839694655,634.1284403669725,-25.321100917431195,-16.51376146788991,,
1760475863.624328,0,-0.91839599609375,0.12432861328125,0.1253662109375,9.404580152671755,-164.15267175572518,-17.595419847328245,634.1284403669725,-26.238532110091743,-16.605504587155963,,
1760475863.6562605,0,-0.91827392578125,0.12420654296875,0.125244140625,9.412213740458014,-154.38167938931298,-27.366412213740457,915.9633027522935,-25.137614678899084,-17.339449541284406,,
1760475863.6669905,0,-0.9180908203125,0.124267578125,0.1253662109375,9.419847328244275,-138.74809160305344,-56.6793893129771,728.0733944954129,-24.95412844036697,-17.06422018348624,,
1760475863.6884797,0,-0.91796875,0.12432861328125,0.1253662109375,9.404580152671755,-154.38167938931298,-46.908396946564885,446.2385321100918,-24.95412844036697,-16.972477064220186,,
1760475863.72043,0,-0.91778564453125,0.12445068359375,0.1253662109375,9.404580152671755,-148.51908396946564,-46.908396946564885,704.5871559633028,-25.68807339449541,-17.155963302752294,,
1760475863.7311828,0,-0.91766357421875,0.124267578125,0.1253662109375,9.404580152671755,-168.06106870229007,15.63358778625954,657.6146788990826,-25.68807339449541,-15.77981651376147,,
1760475863.752494,0,-0.91748046875,0.12432861328125,0.1253662109375,9.435114503816791,-150.4732824427481,-5.870229007633588,704.5871559633028,-25.137614678899084,-16.88073394495413,,
1760475863.78443,0,-0.9173583984375,0.12432861328125,0.12518310546875,9.404580152671755,-152.42748091603053,-33.229007633587784,610.6422018348624,-24.770642201834864,-16.788990825688074,,
1760475863.7952318,0,-0.91717529296875,0.1243896484375,0.12530517578125,9.404580152671755,-168.06106870229007,-1.9618320610687023,681.1009174311927,-25.779816513761467,-16.88073394495413,,
1760475863.8165784,0,-0.91705322265625,0.124267578125,0.12542724609375,9.427480916030534,-166.10687022900763,-48.86259541984733,728.0733944954129,-25.504587155963304,-16.51376146788991,,
1760475863.8273509,0,-0.9168701171875,0.12432861328125,0.1253662109375,9.404580152671755,-144.61068702290078,-37.13740458015267,634.1284403669725,-25.871559633027523,-17.06422018348624,,
1760475863.848776,0,-0.916748046875,0.12432861328125,0.12530517578125,9.435114503816791,-132.8854961832061,-41.045801526717554,563.6697247706422,-25.321100917431195,-16.51376146788991,,
1760475863.8595152,0,-0.91656494140625,0.1243896484375,0.12542724609375,9.427480916030534,-150.4732824427481,-13.687022900763358,868.9908256880734,-25.412844036697248,-16.88073394495413,,
1760475863.8809557,0,-0.91644287109375,0.1243896484375,0.1253662109375,9.435114503816791,-121.16030534351144,-29.3206106870229,728.0733944954129,-25.871559633027523,-16.788990825688074,,
1760475863.9129236,0,-0.916259765625,0.124267578125,0.1253662109375,9.419847328244275,-142.65648854961833,-43.0,610.6422018348624,-25.229357798165136,-16.605504587155963,,
1760475863.9237306,0,-0.9161376953125,0.12420654296875,0.12542724609375,9.412213740458014,-119.206106870229,-44.954198473282446,352.2935779816514,-25.779816513761467,-16.972477064220186,,
1760475863.945087,0,-0.91595458984375,0.124267578125,0.1253662109375,9.427480916030534,-156.33587786259542,-29.3206106870229,610.6422018348624,-25.412844036697248,-16.788990825688074,,
1760475863.9770305,0,-0.91583251953125,0.12445068359375,0.12542724609375,9.427480916030534,-130.93129770992363,-44.954198473282446,328.8073394495413,-25.59633027522936,-16.88073394495413,,
1760475863.9877994,0,-0.9156494140625,0.12432861328125,0.1253662109375,9.404580152671755,-140.70229007633588,-60.58778625954199,681.1009174311927,-25.321100917431195,-16.88073394495413,,
1760475864.0092652,0,-0.91552734375,0.1243896484375,0.12530517578125,9.419847328244275,-140.70229007633588,-27.366412213740457,868.9908256880734,-25.137614678899084,-16.88073394495413,,
1760475864.0200045,0,-0.91534423828125,0.124267578125,0.1253662109375,9.396946564885496,-160.24427480916032,-43.0,822.0183486238533,-24.86238532110092,-16.788990825688074,,
1760475864.04134,0,-0.91522216796875,0.12432861328125,0.12530517578125,9.404580152671755,-130.93129770992363,-33.229007633587784,775.045871559633,-25.321100917431195,-16.055045871559635,,
1760475864.062707,0,-0.9150390625,0.1243896484375,0.1253662109375,9.419847328244275,-166.10687022900763,-19.549618320610687,962.9357798165138,-25.229357798165136,-16.69724770642202,,
1760475864.0735595,0,-0.9149169921875,0.1243896484375,0.12548828125,9.427480916030534,-132.8854961832061,-54.725190839694655,469.72477064220186,-25.229357798165136,-17.155963302752294,,
1760475864.0949936,0,-0.91473388671875,0.124267578125,0.12548828125,9.404580152671755,-125.06870229007632,-33.229007633587784,657.6146788990826,-25.504587155963304,-17.06422018348624,,
1760475864.137498,0,-0.91461181640625,0.12445068359375,0.12548828125,9.419847328244275,-138.74809160305344,-15.641221374045802,563.6697247706422,-24.86238532110092,-16.69724770642202,,
1760475864.1482615,0,-0.9144287109375,0.12432861328125,0.12542724609375,9.427480916030534,-152.42748091603053,-43.0,540.1834862385322,-25.871559633027523,-16.88073394495413,,
1760475864.1695733,0,-0.914306640625,0.12432861328125,0.12530517578125,9.412213740458014,-170.01526717557252,-35.18320610687023,258.34862385321105,-25.68807339449541,-16.788990825688074,,
1760475864.201444,0,-0.91412353515625,0.124267578125,0.12548828125,9.419847328244275,-130.93129770992363,-33.229007633587784,681.1009174311927,-25.963302752293576,-16.605504587155963,,
1760475864.2122006,0,-0.91400146484375,0.1243896484375,0.12530517578125,9.412213740458014,-168.06106870229007,-25.41221374045801,868.9908256880734,-25.504587155963304,-17.706422018348626,,
1760475864.2229433,0,-0.913818359375,0.12432861328125,0.1253662109375,9.419847328244275,-134.83969465648855,-21.50381679389313,563.6697247706422,-25.045871559633028,-16.69724770642202,,
1760475864.2336817,0,-0.9136962890625,0.12420654296875,0.12530517578125,9.419847328244275,-152.42748091603053,-29.3206106870229,328.8073394495413,-24.86238532110092,-17.24770642201835,,
1760475864.2655728,0,-0.91351318359375,0.1243896484375,0.12542724609375,9.412213740458014,-140.70229007633588,-23.45801526717557,657.6146788990826,-24.95412844036697,-16.69724770642202,,
1760475864.2764068,0,-0.91339111328125,0.12432861328125,0.1253662109375,9.427480916030534,-154.38167938931298,-64.49618320610686,1009.908256880734,-24.95412844036697,-17.431192660550458,,
1760475864.2978952,0,-0.9132080078125,0.1243896484375,0.12530517578125,9.419847328244275,-144.61068702290078,-43.0,516.6972477064221,-25.779816513761467,-17.155963302752294,,
1760475864.329842,0,-0.9130859375,0.1243896484375,0.12548828125,9.427480916030534,-156.33587786259542,-29.3206106870229,704.5871559633028,-25.321100917431195,-17.155963302752294,,
1760475864.3405485,0,-0.91290283203125,0.1243896484375,0.1253662109375,9.412213740458014,-128.9770992366412,-41.045801526717554,775.045871559633,-25.779816513761467,-16.788990825688074,,
1760475864.3620036,0,-0.91278076171875,0.124267578125,0.1253662109375,9.427480916030534,-154.38167938931298,-52.770992366412216,751.559633027523,-25.412844036697248,-16.14678899082569,,
1760475864.3728025,0,-0.91259765625,0.12432861328125,0.12530517578125,9.412213740458014,-132.8854961832061,-19.549618320610687,751.559633027523,-25.412844036697248,-17.155963302752294,,
1760475864.3941865,0,-0.9124755859375,0.12432861328125,0.1253662109375,9.419847328244275,-127.02290076335878,-58.63358778625954,681.1009174311927,-24.678899082568808,-16.88073394495413,,
1760475864.4260454,0,-0.91229248046875,0.12432861328125,0.12530517578125,9.419847328244275,-134.83969465648855,-19.549618320610687,493.2110091743119,-25.137614678899084,-17.06422018348624,,
1760475864.4368916,0,-0.91217041015625,0.124267578125,0.12554931640625,9.412213740458014,-125.06870229007632,-50.81679389312977,751.559633027523,-24.86238532110092,-16.788990825688074,,
1760475864.4582632,0,-0.9119873046875,0.1243896484375,0.1253662109375,9.412213740458014,-160.24427480916032,-58.63358778625954,587.1559633027523,-25.59633027522936,-16.88073394495413,,
1760475864.4689791,0,-0.911865234375,0.12432861328125,0.12530517578125,9.419847328244275,-152.42748091603053,-50.81679389312977,516.6972477064221,-25.412844036697248,-15.96330275229358,,
1760475864.5114748,0,-0.91168212890625,0.12432861328125,0.12548828125,9.412213740458014,-158.29007633587787,-43.0,728.0733944954129,-25.321100917431195,-17.339449541284406,,
1760475864.522259,0,-0.91156005859375,0.12432861328125,0.12548828125,9.419847328244275,-132.8854961832061,-56.6793893129771,328.8073394495413,-25.68807339449541,-16.69724770642202,,
1760475864.5330293,0,-0.911376953125,0.12432861328125,0.1253662109375,9.427480916030534,-146.5648854961832,-41.045801526717554,1080.3669724770643,-24.86238532110092,-17.155963302752294,,
1760475864.5439324,0,-0.9112548828125,0.1243896484375,0.125244140625,9.427480916030534,-166.10687022900763,-27.366412213740457,610.6422018348624,-25.412844036697248,-16.788990825688074,,
1760475864.5757313,0,-0.91107177734375,0.12432861328125,0.12542724609375,9.442748091603054,-162.19847328244273,-66.45038167938931,939.4495412844036,-25.321100917431195,-15.96330275229358,,
1760475864.5864525,0,-0.91094970703125,0.12445068359375,0.1253662109375,9.419847328244275,-113.34351145038168,-72.31297709923665,563.6697247706422,-25.412844036697248,-17.155963302752294,,
1760475864.6078742,0,-0.9107666015625,0.124267578125,0.12530517578125,9.412213740458014,-107.48091603053436,-52.770992366412216,868.9908256880734,-24.95412844036697,-16.788990825688074,,
1760475864.639801,0,-0.91064453125,0.12432861328125,0.1253662109375,9.412213740458014,-171.96946564885496,-64.49618320610686,657.6146788990826,-25.412844036697248,-16.51376146788991,,
1760475864.6505933,0,-0.91046142578125,0.1243896484375,0.12530517578125,9.435114503816791,-130.93129770992363,-74.26717557251908,728.0733944954129,-25.504587155963304,-16.972477064220186,,
1760475864.672034,0,-0.91033935546875,0.12432861328125,0.12530517578125,9.419847328244275,-173.9236641221374,-25.41221374045801,728.0733944954129,-25.963302752293576,-16.055045871559635,,
1760475864.7040198,0,-0.91015625,0.12432861328125,0.1253662109375,9.412213740458014,-146.5648854961832,-37.13740458015267,587.1559633027523,-25.137614678899084,-17.155963302752294,,
1760475864.7148292,0,-0.9100341796875,0.124267578125,0.125244140625,9.435114503816791,-148.51908396946564,-44.954198473282446,610.6422018348624,-25.137614678899084,-16.788990825688074,,
1760475864.7360718,0,-0.90985107421875,0.12420654296875,0.1253662109375,9.427480916030534,-148.51908396946564,-46.908396946564885,587.1559633027523,-25.321100917431195,-17.155963302752294,,
1760475864.7679925,0,-0.90972900390625,0.12432861328125,0.12530517578125,9.419847328244275,-144.61068702290078,-43.0,657.6146788990826,-24.95412844036697,-17.339449541284406,,
1760475864.7788098,0,-0.9095458984375,0.12445068359375,0.1253662109375,9.427480916030534,-130.93129770992363,-44.954198473282446,493.2110091743119,-25.59633027522936,-16.788990825688074,,
1760475864.789598,0,-0.909423828125,0.124267578125,0.1253662109375,9.427480916030534,-152.42748091603053,-13.687022900763358,140.91743119266056,-25.59633027522936,-16.788990825688074,,
1760475864.800563,0,-0.90924072265625,0.12432861328125,0.12530517578125,9.427480916030534,-156.33587786259542,-11.732824427480915,681.1009174311927,-25.229357798165136,-16.422018348623855,,
1760475864.8221607,0,-0.90911865234375,0.12432861328125,0.1253662109375,9.419847328244275,-170.01526717557252,-29.3206106870229,822.0183486238533,-25.321100917431195,-16.238532110091743,,
1760475864.832833,0,-0.908935546875,0.12432861328125,0.12542724609375,9.419847328244275,-148.51908396946564,-62.54198473282442,469.72477064220186,-25.137614678899084,-17.06422018348624,,
1760475864.8542264,0,-0.9088134765625,0.12432861328125,0.125244140625,9.419847328244275,-144.61068702290078,-52.770992366412216,704.5871559633028,-25.229357798165136,-17.431192660550458,,
1760475864.8860664,0,-0.90863037109375,0.1243896484375,0.1253662109375,9.419847328244275,-150.4732824427481,-33.229007633587784,587.1559633027523,-25.504587155963304,-17.522935779816514,,
1760475864.8969052,0,-0.90850830078125,0.124267578125,0.1253662109375,9.419847328244275,-140.70229007633588,-27.366412213740457,845.5045871559633,-25.68807339449541,-16.422018348623855,,
1760475864.9183123,0,-0.9083251953125,0.1243896484375,0.12530517578125,9.427480916030534,-148.51908396946564,-44.954198473282446,657.6146788990826,-25.504587155963304,-16.238532110091743,,
1760475864.950097,0,-0.908203125,0.1243896484375,0.12530517578125,9.427480916030534,-142.65648854961833,-48.86259541984733,493.2110091743119,-25.412844036697248,-17.06422018348624,,
1760475864.961283,0,-0.90802001953125,0.1243896484375,0.12530517578125,9.442748091603054,-150.4732824427481,-62.54198473282442,657.6146788990826,-25.779816513761467,-16.88073394495413,,
1760475864.992501,0,-0.90789794921875,0.124267578125,0.12542724609375,9.412213740458014,-148.51908396946564,-46.908396946564885,634.1284403669725,-24.587155963302752,-16.88073394495413,,
1760475865.0030398,0,-0.90771484375,0.1243896484375,0.1253662109375,9.435114503816791,-119.206106870229,-21.50381679389313,845.5045871559633,-25.412844036697248,-17.61467889908257,,
1760475865.0135393,0,-0.9075927734375,0.124267578125,0.12530517578125,9.419847328244275,-132.8854961832061,-31.27480916030534,704.5871559633028,-25.137614678899084,-16.605504587155963,,
1760475865.0450146,0,-0.90740966796875,0.1243896484375,0.12542724609375,9.450381679389311,-142.65648854961833,-54.725190839694655,540.1834862385322,-25.68807339449541,-16.88073394495413,,
1760475865.0558467,0,-0.90728759765625,0.12451171875,0.12548828125,9.419847328244275,-154.38167938931298,-23.45801526717557,516.6972477064221,-25.137614678899084,-16.69724770642202,,
1760475865.077186,0,-0.9071044921875,0.124267578125,0.1253662109375,9.412213740458014,-134.83969465648855,-23.45801526717557,352.2935779816514,-25.779816513761467,-17.155963302752294,,
1760475865.088016,0,-0.906982421875,0.1243896484375,0.1253662109375,9.427480916030534,-117.25190839694656,-41.045801526717554,493.2110091743119,-25.045871559633028,-17.24770642201835,,
1760475865.120013,0,-0.90679931640625,0.12432861328125,0.1253662109375,9.412213740458014,-111.38931297709924,-11.732824427480915,939.4495412844036,-25.321100917431195,-17.155963302752294,,
1760475865.1308172,0,-0.90667724609375,0.12432861328125,0.1253662109375,9.419847328244275,-134.83969465648855,-54.725190839694655,563.6697247706422,-26.055045871559635,-16.788990825688074,,
1760475865.1522017,0,-0.906494140625,0.12432861328125,0.1253662109375,9.412213740458014,-160.24427480916032,-52.770992366412216,681.1009174311927,-25.871559633027523,-16.422018348623855,,
1760475865.1838443,0,-0.9063720703125,0.12445068359375,0.1253662109375,9.419847328244275,-162.19847328244273,-44.954198473282446,845.5045871559633,-25.504587155963304,-16.88073394495413,,
1760475865.194737,0,-0.90618896484375,0.124267578125,0.1253662109375,9.396946564885496,-146.5648854961832,-1.9618320610687023,657.6146788990826,-25.229357798165136,-17.155963302752294,,
1760475865.2161152,0,-0.90606689453125,0.12432861328125,0.12554931640625,9.396946564885496,-148.51908396946564,-58.63358778625954,610.6422018348624,-25.229357798165136,-17.06422018348624,,
1760475865.2479875,0,-0.9058837890625,0.124267578125,0.12542724609375,9.419847328244275,-158.29007633587787,-29.3206106870229,469.72477064220186,-25.137614678899084,-17.431192660550458,,
1760475865.2587738,0,-0.90576171875,0.1243896484375,0.12542724609375,9.419847328244275,-146.5648854961832,-87.94656488549619,704.5871559633028,-25.412844036697248,-16.88073394495413,,
1760475865.280107,0,-0.90557861328125,0.12432861328125,0.12542724609375,9.412213740458014,-152.42748091603053,-33.229007633587784,704.5871559633028,-26.055045871559635,-16.238532110091743,,
1760475865.290889,0,-0.90545654296875,0.12432861328125,0.12530517578125,9.419847328244275,-156.33587786259542,-33.229007633587784,587.1559633027523,-24.86238532110092,-16.69724770642202,,
1760475865.3122792,0,-0.9052734375,0.1243896484375,0.1253662109375,9.412213740458014,-138.74809160305344,-68.40458015267176,822.0183486238533,-25.504587155963304,-17.522935779816514,,
1760475865.344112,0,-0.9051513671875,0.1243896484375,0.1253662109375,9.435114503816791,-166.10687022900763,-44.954198473282446,728.0733944954129,-24.95412844036697,-16.972477064220186,,
1760475865.35493,0,-0.90496826171875,0.12432861328125,0.1253662109375,9.450381679389311,-160.24427480916032,-52.770992366412216,540.1834862385322,-25.229357798165136,-17.155963302752294,,
1760475865.3762066,0,-0.90484619140625,0.12432861328125,0.1253662109375,9.404580152671755,-173.9236641221374,-41.045801526717554,1009.908256880734,-25.229357798165136,-16.69724770642202,,
1760475865.3871174,0,-0.9046630859375,0.1243896484375,0.1253662109375,9.435114503816791,-119.206106870229,-25.41221374045801,845.5045871559633,-25.229357798165136,-16.3302752293578,,
1760475865.408465,0,-0.904541015625,0.124267578125,0.12542724609375,9.435114503816791,-148.51908396946564,-39.09160305343512,915.9633027522935,-25.412844036697248,-16.788990825688074,,
1760475865.4397986,0,-0.90435791015625,0.12432861328125,0.1253662109375,9.419847328244275,-138.74809160305344,-62.54198473282442,587.1559633027523,-25.412844036697248,-16.422018348623855,,
1760475865.4504826,0,-0.90423583984375,0.12432861328125,0.1253662109375,9.404580152671755,-164.15267175572518,-19.549618320610687,493.2110091743119,-24.86238532110092,-16.605504587155963,,
1760475865.4719465,0,-0.904052734375,0.12432861328125,0.1253662109375,9.419847328244275,-142.65648854961833,-52.770992366412216,939.4495412844036,-25.045871559633028,-17.24770642201835,,
1760475865.4931676,0,-0.9039306640625,0.1243896484375,0.12542724609375,9.435114503816791,-181.7404580152672,-54.725190839694655,681.1009174311927,-25.68807339449541,-16.88073394495413,,
1760475865.5037365,0,-0.90374755859375,0.12420654296875,0.1253662109375,9.412213740458014,-128.9770992366412,-19.549618320610687,610.6422018348624,-25.412844036697248,-16.972477064220186,,
1760475865.525107,0,-0.90362548828125,0.12432861328125,0.12542724609375,9.404580152671755,-152.42748091603053,-33.229007633587784,681.1009174311927,-25.963302752293576,-16.88073394495413,,
1760475865.5358598,0,-0.9034423828125,0.12432861328125,0.1253662109375,9.419847328244275,-146.5648854961832,9.770992366412214,516.6972477064221,-25.137614678899084,-16.972477064220186,,
1760475865.5570996,0,-0.9033203125,0.1243896484375,0.12542724609375,9.427480916030534,-152.42748091603053,-23.45801526717557,798.5321100917431,-25.229357798165136,-16.788990825688074,,
1760475865.5889802,0,-0.90313720703125,0.1243896484375,0.1253662109375,9.412213740458014,-146.5648854961832,-31.27480916030534,728.0733944954129,-25.779816513761467,-16.88073394495413,,
1760475865.5999072,0,-0.90301513671875,0.124267578125,0.12548828125,9.427480916030534,-171.96946564885496,-27.366412213740457,704.5871559633028,-25.59633027522936,-16.788990825688074,,
1760475865.621252,0,-0.90283203125,0.1243896484375,0.1253662109375,9.412213740458014,-136.793893129771,-31.27480916030534,775.045871559633,-25.412844036697248,-16.88073394495413,,
1760475865.6529975,0,-0.9027099609375,0.12445068359375,0.12548828125,9.427480916030534,-173.9236641221374,-43.0,892.4770642201836,-24.86238532110092,-16.88073394495413,,
1760475865.6635523,0,-0.90252685546875,0.12420654296875,0.12548828125,9.396946564885496,-150.4732824427481,-64.49618320610686,469.72477064220186,-25.321100917431195,-16.51376146788991,,
1760475865.6847522,0,-0.90240478515625,0.12432861328125,0.12548828125,9.435114503816791,-183.6946564885496,-74.26717557251908,540.1834862385322,-25.229357798165136,-16.88073394495413,,
1760475865.7166405,0,-0.9022216796875,0.1243896484375,0.12542724609375,9.404580152671755,-171.96946564885496,-60.58778625954199,798.5321100917431,-25.321100917431195,-16.88073394495413,,
1760475865.727348,0,-0.902099609375,0.12420654296875,0.12542724609375,9.412213740458014,-146.5648854961832,-23.45801526717557,1033.3944954128442,-25.412844036697248,-16.88073394495413,,
1760475865.7381363,0,-0.90191650390625,0.124267578125,0.12530517578125,9.435114503816791,-170.01526717557252,-25.41221374045801,845.5045871559633,-26.238532110091743,-16.422018348623855,,
1760475865.748902,0,-0.90179443359375,0.12432861328125,0.1253662109375,9.412213740458014,-158.29007633587787,-29.3206106870229,1033.3944954128442,-25.229357798165136,-16.788990825688074,,
1760475865.7702246,0,-0.901611328125,0.1243896484375,0.12530517578125,9.427480916030534,-156.33587786259542,-35.18320610687023,610.6422018348624,-25.504587155963304,-17.339449541284406,,
1760475865.8019998,0,-0.9014892578125,0.124267578125,0.12548828125,9.412213740458014,-166.10687022900763,-31.27480916030534,399.2660550458716,-25.045871559633028,-17.24770642201835,,
1760475865.8127842,0,-0.90130615234375,0.12432861328125,0.12548828125,9.427480916030534,-146.5648854961832,-35.18320610687023,704.5871559633028,-25.68807339449541,-16.972477064220186,,
1760475865.8341928,0,-0.90118408203125,0.1243896484375,0.1253662109375,9.412213740458014,-156.33587786259542,-19.549618320610687,751.559633027523,-25.229357798165136,-16.972477064220186,,
1760475865.8659182,0,-0.9010009765625,0.124267578125,0.12542724609375,9.404580152671755,-150.4732824427481,-35.18320610687023,775.045871559633,-25.229357798165136,-16.605504587155963,,
1760475865.8975933,0,-0.90087890625,0.124267578125,0.1253662109375,9.419847328244275,-132.8854961832061,-70.3587786259542,610.6422018348624,-25.412844036697248,-16.69724770642202,,
1760475865.908349,0,-0.90069580078125,0.1243896484375,0.12530517578125,9.412213740458014,-171.96946564885496,-62.54198473282442,563.6697247706422,-25.779816513761467,-16.51376146788991,,
1760475865.9292507,0,-0.90057373046875,0.12432861328125,0.125244140625,9.419847328244275,-121.16030534351144,-46.908396946564885,563.6697247706422,-25.504587155963304,-17.61467889908257,,
1760475865.9398878,0,-0.900390625,0.124267578125,0.12542724609375,9.419847328244275,-150.4732824427481,-41.045801526717554,634.1284403669725,-24.95412844036697,-16.788990825688074,,
1760475865.961286,0,-0.9002685546875,0.12432861328125,0.1253662109375,9.419847328244275,-154.38167938931298,-25.41221374045801,516.6972477064221,-25.412844036697248,-17.24770642201835,,
1760475865.9720302,0,-0.90008544921875,0.124267578125,0.12542724609375,9.412213740458014,-148.51908396946564,-58.63358778625954,563.6697247706422,-25.59633027522936,-16.972477064220186,,
1760475865.993404,0,-0.89996337890625,0.1243896484375,0.1253662109375,9.412213740458014,-144.61068702290078,-7.824427480916031,469.72477064220186,-25.412844036697248,-17.155963302752294,,
1760475866.0252397,0,-0.8997802734375,0.1243896484375,0.12542724609375,9.427480916030534,-164.15267175572518,-44.954198473282446,681.1009174311927,-25.871559633027523,-17.155963302752294,,
1760475866.0359194,0,-0.899658203125,0.1243896484375,0.12530517578125,9.419847328244275,-140.70229007633588,-52.770992366412216,540.1834862385322,-25.59633027522936,-17.06422018348624,,
1760475866.057277,0,-0.89947509765625,0.12432861328125,0.12530517578125,9.412213740458014,-168.06106870229007,-39.09160305343512,446.2385321100918,-25.779816513761467,-17.24770642201835,,
1760475866.0680192,0,-0.89935302734375,0.12432861328125,0.12542724609375,9.427480916030534,-150.4732824427481,-33.229007633587784,892.4770642201836,-25.504587155963304,-16.69724770642202,,
1760475866.0893886,0,-0.899169921875,0.1243896484375,0.1253662109375,9.404580152671755,-183.6946564885496,-37.13740458015267,446.2385321100918,-24.95412844036697,-17.155963302752294,,
1760475866.1210146,0,-0.8990478515625,0.1243896484375,0.1253662109375,9.427480916030534,-162.19847328244273,-41.045801526717554,751.559633027523,-25.68807339449541,-16.788990825688074,,
1760475866.1315863,0,-0.89886474609375,0.12451171875,0.12530517578125,9.435114503816791,-142.65648854961833,-68.40458015267176,610.6422018348624,-25.321100917431195,-16.69724770642202,,
1760475866.15299,0,-0.89874267578125,0.12432861328125,0.1253662109375,9.427480916030534,-195.4198473282443,-41.045801526717554,610.6422018348624,-25.412844036697248,-17.339449541284406,,
1760475866.1742811,0,-0.8985595703125,0.124267578125,0.12530517578125,9.450381679389311,-171.96946564885496,-19.549618320610687,516.6972477064221,-25.412844036697248,-17.431192660550458,,
1760475866.1849372,0,-0.8984375,0.124267578125,0.1253662109375,9.427480916030534,-130.93129770992363,-15.641221374045802,634.1284403669725,-25.504587155963304,-17.431192660550458,,
1760475866.2062624,0,-0.89825439453125,0.1243896484375,0.125244140625,9.396946564885496,-158.29007633587787,-43.0,657.6146788990826,-26.238532110091743,-16.3302752293578,,
1760475866.2380354,0,-0.89813232421875,0.1243896484375,0.125244140625,9.427480916030534,-117.25190839694656,-19.549618320610687,469.72477064220186,-25.229357798165136,-16.69724770642202,,
1760475866.2487965,0,-0.89794921875,0.12432861328125,0.12542724609375,9.427480916030534,-166.10687022900763,-44.954198473282446,657.6146788990826,-25.321100917431195,-17.06422018348624,,
1760475866.2703009,0,-0.8978271484375,0.12432861328125,0.12530517578125,9.404580152671755,-150.4732824427481,-23.45801526717557,657.6146788990826,-25.321100917431195,-16.88073394495413,,
1760475866.2810133,0,-0.89764404296875,0.12432861328125,0.12542724609375,9.435114503816791,-148.51908396946564,-58.63358778625954,775.045871559633,-25.68807339449541,-16.972477064220186,,
1760475866.3023658,0,-0.89752197265625,0.12432861328125,0.12542724609375,9.427480916030534,-127.02290076335878,-44.954198473282446,1127.3394495412845,-25.504587155963304,-16.88073394495413,,
1760475866.3341053,0,-0.8973388671875,0.12432861328125,0.12542724609375,9.412213740458014,-158.29007633587787,-46.908396946564885,469.72477064220186,-25.68807339449541,-16.3302752293578,,
1760475866.34488,0,-0.897216796875,0.12432861328125,0.12530517578125,9.419847328244275,-144.61068702290078,-19.549618320610687,704.5871559633028,-25.504587155963304,-16.88073394495413,,
1760475866.366271,0,-0.89703369140625,0.124267578125,0.125244140625,9.419847328244275,-150.4732824427481,-54.725190839694655,1009.908256880734,-25.59633027522936,-16.422018348623855,,
1760475866.397982,0,-0.89691162109375,0.12432861328125,0.12530517578125,9.404580152671755,-162.19847328244273,-29.3206106870229,798.5321100917431,-25.229357798165136,-17.155963302752294,,
1760475866.40873,0,-0.896728515625,0.1243896484375,0.12530517578125,9.419847328244275,-179.78625954198472,-43.0,681.1009174311927,-25.504587155963304,-17.06422018348624,,
1760475866.4298985,0,-0.8966064453125,0.1243896484375,0.1253662109375,9.412213740458014,-181.7404580152672,-25.41221374045801,892.4770642201836,-25.229357798165136,-16.972477064220186,,
1760475866.4406035,0,-0.89642333984375,0.1243896484375,0.1253662109375,9.435114503816791,-148.51908396946564,-58.63358778625954,187.88990825688077,-25.229357798165136,-16.788990825688074,,
1760475866.461993,0,-0.89630126953125,0.1243896484375,0.1253662109375,9.427480916030534,-142.65648854961833,-35.18320610687023,704.5871559633028,-25.963302752293576,-16.972477064220186,,
1760475866.483267,0,-0.8961181640625,0.12432861328125,0.1253662109375,9.412213740458014,-146.5648854961832,-50.81679389312977,634.1284403669725,-25.229357798165136,-16.972477064220186,,
1760475866.515074,0,-0.89599609375,0.12420654296875,0.12530517578125,9.427480916030534,-158.29007633587787,-35.18320610687023,986.422018348624,-24.770642201834864,-17.06422018348624,,
1760475866.5258503,0,-0.89581298828125,0.1243896484375,0.125244140625,9.427480916030534,-140.70229007633588,-27.366412213740457,493.2110091743119,-24.678899082568808,-16.88073394495413,,
1760475866.546991,0,-0.89569091796875,0.1243896484375,0.12548828125,9.404580152671755,-160.24427480916032,-39.09160305343512,516.6972477064221,-25.504587155963304,-16.88073394495413,,
1760475866.5786045,0,-0.8955078125,0.1243896484375,0.1253662109375,9.396946564885496,-121.16030534351144,-7.824427480916031,469.72477064220186,-25.137614678899084,-16.51376146788991,,
1760475866.5893562,0,-0.8953857421875,0.1243896484375,0.12530517578125,9.419847328244275,-125.06870229007632,-35.18320610687023,751.559633027523,-25.321100917431195,-17.24770642201835,,
1760475866.6110823,0,-0.89520263671875,0.12432861328125,0.12548828125,9.404580152671755,-170.01526717557252,-50.81679389312977,610.6422018348624,-25.137614678899084,-17.339449541284406,,
1760475866.6215892,0,-0.89508056640625,0.12432861328125,0.1253662109375,9.419847328244275,-170.01526717557252,-44.954198473282446,798.5321100917431,-25.412844036697248,-16.788990825688074,,
1760475866.6423814,0,-0.8948974609375,0.124267578125,0.1253662109375,9.419847328244275,-158.29007633587787,-31.27480916030534,822.0183486238533,-25.59633027522936,-16.88073394495413,,
1760475866.6532164,0,-0.894775390625,0.12432861328125,0.12542724609375,9.427480916030534,-134.83969465648855,-13.687022900763358,634.1284403669725,-25.59633027522936,-16.422018348623855,,
1760475866.6745338,0,-0.89459228515625,0.124267578125,0.125244140625,9.419847328244275,-128.9770992366412,-60.58778625954199,352.2935779816514,-25.963302752293576,-16.3302752293578,,
1760475866.7063022,0,-0.89447021484375,0.124267578125,0.12530517578125,9.419847328244275,-166.10687022900763,-39.09160305343512,657.6146788990826,-24.95412844036697,-16.972477064220186,,
1760475866.716998,0,-0.894287109375,0.124267578125,0.12542724609375,9.419847328244275,-152.42748091603053,-17.595419847328245,798.5321100917431,-25.229357798165136,-17.155963302752294,,
1760475866.7382634,0,-0.8941650390625,0.12445068359375,0.1253662109375,9.427480916030534,-107.48091603053436,-48.86259541984733,751.559633027523,-25.229357798165136,-17.61467889908257,,
1760475866.769685,0,-0.89398193359375,0.12445068359375,0.12530517578125,9.419847328244275,-130.93129770992363,-27.366412213740457,775.045871559633,-25.504587155963304,-16.238532110091743,,
1760475866.7806857,0,-0.89385986328125,0.12432861328125,0.12530517578125,9.427480916030534,-171.96946564885496,-43.0,986.422018348624,-25.779816513761467,-16.788990825688074,,
1760475866.8014483,0,-0.8936767578125,0.12432861328125,0.12542724609375,9.427480916030534,-160.24427480916032,-41.045801526717554,540.1834862385322,-25.59633027522936,-16.788990825688074,,
1760475866.8120084,0,-0.8935546875,0.12432861328125,0.1253662109375,9.404580152671755,-150.4732824427481,-70.3587786259542,868.9908256880734,-24.95412844036697,-17.24770642201835,,
1760475866.8332496,0,-0.89337158203125,0.124267578125,0.1253662109375,9.427480916030534,-175.87786259541986,-31.27480916030534,610.6422018348624,-25.045871559633028,-16.51376146788991,,
1760475866.8645208,0,-0.89324951171875,0.12432861328125,0.1253662109375,9.427480916030534,-140.70229007633588,-46.908396946564885,587.1559633027523,-25.045871559633028,-17.06422018348624,,
1760475866.8749444,0,-0.89306640625,0.12445068359375,0.12530517578125,9.419847328244275,-138.74809160305344,-76.22137404580153,822.0183486238533,-25.229357798165136,-16.788990825688074,,
1760475866.8958955,0,-0.8929443359375,0.12432861328125,0.12542724609375,9.412213740458014,-123.1145038167939,-29.3206106870229,751.559633027523,-25.59633027522936,-16.422018348623855,,
1760475866.9273992,0,-0.89276123046875,0.1243896484375,0.12530517578125,9.404580152671755,-109.4351145038168,-31.27480916030534,751.559633027523,-25.68807339449541,-17.06422018348624,,
1760475866.9379506,0,-0.89263916015625,0.12432861328125,0.1253662109375,9.419847328244275,-160.24427480916032,-54.725190839694655,469.72477064220186,-25.871559633027523,-16.605504587155963,,
1760475866.9594965,0,-0.8924560546875,0.12432861328125,0.1253662109375,9.412213740458014,-128.9770992366412,-37.13740458015267,281.8348623853211,-24.86238532110092,-17.155963302752294,,
1760475866.9702485,0,-0.892333984375,0.124267578125,0.12530517578125,9.419847328244275,-164.15267175572518,-35.18320610687023,540.1834862385322,-25.68807339449541,-17.06422018348624,,
1760475866.9809723,0,-0.89215087890625,0.1243896484375,0.1253662109375,9.427480916030534,-121.16030534351144,-78.17557251908397,540.1834862385322,-25.412844036697248,-16.605504587155963,,
1760475867.0121465,0,-0.89202880859375,0.12420654296875,0.1253662109375,9.427480916030534,-150.4732824427481,-19.549618320610687,563.6697247706422,-25.59633027522936,-16.3302752293578,,
1760475867.022617,0,-0.891845703125,0.12445068359375,0.12542724609375,9.412213740458014,-150.4732824427481,-44.954198473282446,751.559633027523,-25.504587155963304,-16.69724770642202,,
1760475867.0439527,0,-0.8917236328125,0.12432861328125,0.12530517578125,9.412213740458014,-150.4732824427481,-60.58778625954199,634.1284403669725,-25.59633027522936,-16.88073394495413,,
1760475867.075378,0,-0.89154052734375,0.12432861328125,0.1253662109375,9.419847328244275,-160.24427480916032,-48.86259541984733,704.5871559633028,-25.229357798165136,-16.972477064220186,,
1760475867.0859125,0,-0.89141845703125,0.124267578125,0.1253662109375,9.396946564885496,-132.8854961832061,-41.045801526717554,446.2385321100918,-25.229357798165136,-17.06422018348624,,
1760475867.106909,0,-0.8912353515625,0.12432861328125,0.12542724609375,9.419847328244275,-150.4732824427481,-13.687022900763358,610.6422018348624,-25.963302752293576,-16.605504587155963,,
1760475867.1380365,0,-0.89111328125,0.1243896484375,0.12542724609375,9.427480916030534,-128.9770992366412,-9.778625954198471,845.5045871559633,-24.95412844036697,-16.3302752293578,,
1760475867.1484475,0,-0.89093017578125,0.124267578125,0.1253662109375,9.419847328244275,-160.24427480916032,-56.6793893129771,634.1284403669725,-25.779816513761467,-17.06422018348624,,
1760475867.1694226,0,-0.89080810546875,0.12432861328125,0.1253662109375,9.435114503816791,-146.5648854961832,-13.687022900763358,751.559633027523,-24.86238532110092,-16.422018348623855,,
1760475867.2011032,0,-0.890625,0.12432861328125,0.12548828125,9.442748091603054,-117.25190839694656,-44.954198473282446,634.1284403669725,-25.229357798165136,-17.24770642201835,,
1760475867.2120967,0,-0.8905029296875,0.12420654296875,0.1253662109375,9.412213740458014,-158.29007633587787,-41.045801526717554,352.2935779816514,-25.229357798165136,-17.339449541284406,,
1760475867.23318,0,-0.89031982421875,0.124267578125,0.1253662109375,9.412213740458014,-117.25190839694656,-19.549618320610687,822.0183486238533,-25.504587155963304,-17.522935779816514,,
1760475867.243852,0,-0.89019775390625,0.1243896484375,0.12542724609375,9.419847328244275,-160.24427480916032,-46.908396946564885,704.5871559633028,-24.770642201834864,-17.24770642201835,,
1760475867.275391,0,-0.8900146484375,0.124267578125,0.12548828125,9.412213740458014,-156.33587786259542,17.587786259541986,822.0183486238533,-25.59633027522936,-16.51376146788991,,
1760475867.2858872,0,-0.889892578125,0.12445068359375,0.12542724609375,9.427480916030534,-125.06870229007632,-58.63358778625954,610.6422018348624,-25.412844036697248,-16.605504587155963,,
1760475867.3068452,0,-0.88970947265625,0.12432861328125,0.1253662109375,9.419847328244275,-168.06106870229007,-52.770992366412216,493.2110091743119,-25.321100917431195,-16.055045871559635,,
1760475867.3382292,0,-0.88958740234375,0.1243896484375,0.12530517578125,9.435114503816791,-160.24427480916032,-39.09160305343512,657.6146788990826,-25.779816513761467,-17.24770642201835,,
1760475867.3489215,0,-0.889404296875,0.12432861328125,0.12548828125,9.435114503816791,-132.8854961832061,-64.49618320610686,610.6422018348624,-24.403669724770644,-17.24770642201835,,
1760475867.359885,0,-0.8892822265625,0.12432861328125,0.12530517578125,9.419847328244275,-142.65648854961833,-48.86259541984733,540.1834862385322,-25.412844036697248,-17.339449541284406,,
1760475867.3912776,0,-0.88909912109375,0.12445068359375,0.12542724609375,9.435114503816791,-158.29007633587787,-46.908396946564885,422.7522935779817,-25.504587155963304,-16.972477064220186,,
1760475867.4017725,0,-0.88897705078125,0.12445068359375,0.1253662109375,9.404580152671755,-152.42748091603053,-48.86259541984733,657.6146788990826,-25.504587155963304,-16.972477064220186,,
1760475867.4226062,0,-0.8887939453125,0.1243896484375,0.1253662109375,9.427480916030534,-150.4732824427481,-66.45038167938931,422.7522935779817,-25.68807339449541,-16.14678899082569,,
1760475867.433194,0,-0.888671875,0.1243896484375,0.12530517578125,9.427480916030534,-128.9770992366412,-44.954198473282446,516.6972477064221,-25.412844036697248,-16.605504587155963,,
1760475867.4541862,0,-0.88848876953125,0.12432861328125,0.12542724609375,9.419847328244275,-185.6488549618321,-54.725190839694655,986.422018348624,-25.504587155963304,-17.06422018348624,,
1760475867.4855025,0,-0.88836669921875,0.12445068359375,0.12542724609375,9.442748091603054,-173.9236641221374,-60.58778625954199,540.1834862385322,-25.412844036697248,-17.06422018348624,,
1760475867.496062,0,-0.88818359375,0.12432861328125,0.12542724609375,9.419847328244275,-168.06106870229007,-37.13740458015267,563.6697247706422,-25.045871559633028,-16.972477064220186,,
1760475867.5171533,0,-0.8880615234375,0.124267578125,0.1253662109375,9.419847328244275,-152.42748091603053,-33.229007633587784,845.5045871559633,-25.779816513761467,-16.69724770642202,,
1760475867.527804,0,-0.88787841796875,0.1243896484375,0.12530517578125,9.419847328244275,-171.96946564885496,-17.595419847328245,798.5321100917431,-25.321100917431195,-16.88073394495413,,
1760475867.5592363,0,-0.88775634765625,0.1243896484375,0.1253662109375,9.419847328244275,-136.793893129771,-17.595419847328245,469.72477064220186,-25.68807339449541,-17.155963302752294,,
1760475867.5803556,0,-0.8875732421875,0.12432861328125,0.1253662109375,9.435114503816791,-121.16030534351144,-62.54198473282442,728.0733944954129,-24.95412844036697,-16.972477064220186,,
1760475867.5909364,0,-0.887451171875,0.1243896484375,0.1253662109375,9.412213740458014,-148.51908396946564,-33.229007633587784,892.4770642201836,-25.229357798165136,-16.972477064220186,,
1760475867.611947,0,-0.88726806640625,0.124267578125,0.12530517578125,9.412213740458014,-177.8320610687023,-44.954198473282446,563.6697247706422,-25.045871559633028,-16.422018348623855,,
1760475867.622717,0,-0.88714599609375,0.12432861328125,0.12530517578125,9.412213740458014,-168.06106870229007,-1.9618320610687023,563.6697247706422,-25.504587155963304,-17.24770642201835,,
1760475867.6544976,0,-0.886962890625,0.12432861328125,0.1253662109375,9.427480916030534,-140.70229007633588,-62.54198473282442,728.0733944954129,-25.59633027522936,-16.605504587155963,,
1760475867.6861672,0,-0.8868408203125,0.12432861328125,0.1253662109375,9.419847328244275,-138.74809160305344,-23.45801526717557,845.5045871559633,-24.95412844036697,-16.422018348623855,,
1760475867.7178214,0,-0.88665771484375,0.124267578125,0.1253662109375,9.419847328244275,-166.10687022900763,-21.50381679389313,798.5321100917431,-25.321100917431195,-16.88073394495413,,
1760475867.7285142,0,-0.88653564453125,0.124267578125,0.12548828125,9.419847328244275,-154.38167938931298,-29.3206106870229,469.72477064220186,-25.137614678899084,-16.605504587155963,,
1760475867.7398503,0,-0.8863525390625,0.12432861328125,0.1253662109375,9.419847328244275,-142.65648854961833,-35.18320610687023,751.559633027523,-25.412844036697248,-16.3302752293578,,
1760475867.7505932,0,-0.88623046875,0.12432861328125,0.12542724609375,9.412213740458014,-193.46564885496184,-74.26717557251908,751.559633027523,-25.137614678899084,-16.422018348623855,,
1760475867.7818325,0,-0.88604736328125,0.124267578125,0.12542724609375,9.419847328244275,-177.8320610687023,-44.954198473282446,728.0733944954129,-25.412844036697248,-15.96330275229358,,
1760475867.792271,0,-0.88592529296875,0.12432861328125,0.12542724609375,9.412213740458014,-136.793893129771,-87.94656488549619,775.045871559633,-26.055045871559635,-16.972477064220186,,
1760475867.8130553,0,-0.8857421875,0.1243896484375,0.1253662109375,9.419847328244275,-150.4732824427481,-15.641221374045802,775.045871559633,-24.678899082568808,-17.24770642201835,,
1760475867.8234804,0,-0.8856201171875,0.1243896484375,0.1253662109375,9.427480916030534,-166.10687022900763,-27.366412213740457,610.6422018348624,-25.871559633027523,-17.24770642201835,,
1760475867.8444102,0,-0.88543701171875,0.12432861328125,0.12548828125,9.435114503816791,-154.38167938931298,-39.09160305343512,446.2385321100918,-25.321100917431195,-16.3302752293578,,
1760475867.8763258,0,-0.88531494140625,0.12432861328125,0.12542724609375,9.404580152671755,-156.33587786259542,-39.09160305343512,986.422018348624,-25.68807339449541,-16.88073394495413,,
1760475867.8869374,0,-0.8851318359375,0.124267578125,0.1253662109375,9.419847328244275,-154.38167938931298,-62.54198473282442,328.8073394495413,-25.137614678899084,-17.431192660550458,,
1760475867.9082284,0,-0.885009765625,0.12432861328125,0.12542724609375,9.419847328244275,-132.8854961832061,-1.9618320610687023,728.0733944954129,-25.68807339449541,-16.605504587155963,,
1760475867.939736,0,-0.88482666015625,0.124267578125,0.12542724609375,9.419847328244275,-162.19847328244273,-35.18320610687023,493.2110091743119,-24.678899082568808,-17.61467889908257,,
1760475867.9504998,0,-0.88470458984375,0.1243896484375,0.1253662109375,9.404580152671755,-150.4732824427481,-44.954198473282446,610.6422018348624,-25.68807339449541,-17.431192660550458,,
1760475867.9718802,0,-0.884521484375,0.124267578125,0.12542724609375,9.419847328244275,-138.74809160305344,-25.41221374045801,657.6146788990826,-25.229357798165136,-16.605504587155963,,
1760475867.9824796,0,-0.8843994140625,0.124267578125,0.1253662109375,9.435114503816791,-142.65648854961833,-46.908396946564885,634.1284403669725,-25.68807339449541,-16.788990825688074,,
1760475868.0038345,0,-0.88421630859375,0.12432861328125,0.1253662109375,9.435114503816791,-164.15267175572518,-74.26717557251908,540.1834862385322,-25.321100917431195,-17.24770642201835,,
1760475868.035768,0,-0.88409423828125,0.124267578125,0.12542724609375,9.419847328244275,-158.29007633587787,-48.86259541984733,868.9908256880734,-25.137614678899084,-16.88073394495413,,
1760475868.0464325,0,-0.8839111328125,0.1243896484375,0.12542724609375,9.419847328244275,-148.51908396946564,-48.86259541984733,751.559633027523,-25.137614678899084,-17.339449541284406,,
1760475868.0679011,0,-0.8837890625,0.12432861328125,0.12542724609375,9.419847328244275,-146.5648854961832,-39.09160305343512,798.5321100917431,-25.504587155963304,-16.788990825688074,,
1760475868.09977,0,-0.88360595703125,0.12420654296875,0.12554931640625,9.419847328244275,-148.51908396946564,-62.54198473282442,892.4770642201836,-25.229357798165136,-16.605504587155963,,
1760475868.1105084,0,-0.88348388671875,0.12420654296875,0.1253662109375,9.435114503816791,-162.19847328244273,-35.18320610687023,704.5871559633028,-25.68807339449541,-17.339449541284406,,
1760475868.1528018,0,-0.88330078125,0.1243896484375,0.1253662109375,9.412213740458014,-152.42748091603053,-46.908396946564885,657.6146788990826,-25.137614678899084,-16.88073394495413,,
1760475868.1635756,0,-0.8831787109375,0.12420654296875,0.12542724609375,9.412213740458014,-181.7404580152672,-1.9618320610687023,516.6972477064221,-25.779816513761467,-16.788990825688074,,
1760475868.174314,0,-0.88299560546875,0.12432861328125,0.12548828125,9.404580152671755,-154.38167938931298,1.954198473282443,798.5321100917431,-25.137614678899084,-17.24770642201835,,
1760475868.1851852,0,-0.88287353515625,0.1243896484375,0.12548828125,9.435114503816791,-152.42748091603053,-43.0,446.2385321100918,-25.59633027522936,-16.3302752293578,,
1760475868.1959653,0,-0.8826904296875,0.1243896484375,0.12542724609375,9.412213740458014,-166.10687022900763,-48.86259541984733,775.045871559633,-25.779816513761467,-17.06422018348624,,
1760475868.2174375,0,-0.882568359375,0.12420654296875,0.12530517578125,9.396946564885496,-158.29007633587787,-31.27480916030534,681.1009174311927,-25.68807339449541,-16.69724770642202,,
1760475868.2493198,0,-0.88238525390625,0.12432861328125,0.12542724609375,9.435114503816791,-181.7404580152672,-60.58778625954199,798.5321100917431,-25.137614678899084,-16.972477064220186,,
1760475868.2601447,0,-0.88226318359375,0.12432861328125,0.12530517578125,9.435114503816791,-148.51908396946564,-43.0,422.7522935779817,-25.68807339449541,-16.51376146788991,,
1760475868.2816324,0,-0.882080078125,0.12432861328125,0.1253662109375,9.412213740458014,-152.42748091603053,-43.0,305.3211009174312,-25.321100917431195,-17.706422018348626,,
1760475868.313539,0,-0.8819580078125,0.1243896484375,0.125244140625,9.396946564885496,-144.61068702290078,-13.687022900763358,375.7798165137615,-25.321100917431195,-16.788990825688074,,
1760475868.3348262,0,-0.88177490234375,0.124267578125,0.12542724609375,9.412213740458014,-144.61068702290078,-43.0,563.6697247706422,-25.504587155963304,-16.422018348623855,,
1760475868.3455625,0,-0.88165283203125,0.1243896484375,0.12542724609375,9.427480916030534,-152.42748091603053,-48.86259541984733,915.9633027522935,-25.68807339449541,-16.3302752293578,,
1760475868.3669958,0,-0.8814697265625,0.1243896484375,0.12542724609375,9.396946564885496,-152.42748091603053,-21.50381679389313,540.1834862385322,-25.504587155963304,-17.06422018348624,,
1760475868.3779008,0,-0.88134765625,0.12432861328125,0.12542724609375,9.419847328244275,-136.793893129771,-21.50381679389313,375.7798165137615,-25.045871559633028,-17.155963302752294,,
1760475868.3991718,0,-0.88116455078125,0.12420654296875,0.12542724609375,9.427480916030534,-146.5648854961832,-21.50381679389313,328.8073394495413,-25.412844036697248,-16.88073394495413,,
1760475868.409943,0,-0.88104248046875,0.12432861328125,0.12542724609375,9.419847328244275,-130.93129770992363,-54.725190839694655,681.1009174311927,-25.59633027522936,-17.155963302752294,,
1760475868.4312267,0,-0.880859375,0.124267578125,0.1253662109375,9.419847328244275,-158.29007633587787,-29.3206106870229,845.5045871559633,-25.59633027522936,-17.06422018348624,,
1760475868.4630876,0,-0.8807373046875,0.12432861328125,0.1253662109375,9.412213740458014,-166.10687022900763,-44.954198473282446,610.6422018348624,-25.321100917431195,-16.69724770642202,,
1760475868.4738655,0,-0.88055419921875,0.12432861328125,0.12548828125,9.389312977099236,-164.15267175572518,-7.824427480916031,399.2660550458716,-25.321100917431195,-17.431192660550458,,
1760475868.495217,0,-0.88043212890625,0.12432861328125,0.1253662109375,9.419847328244275,-148.51908396946564,-35.18320610687023,681.1009174311927,-26.513761467889907,-17.06422018348624,,
1760475868.5059907,0,-0.8802490234375,0.12432861328125,0.12542724609375,9.419847328244275,-185.6488549618321,-60.58778625954199,798.5321100917431,-25.779816513761467,-17.431192660550458,,
1760475868.537461,0,-0.880126953125,0.124267578125,0.12548828125,9.412213740458014,-144.61068702290078,-31.27480916030534,516.6972477064221,-25.779816513761467,-16.972477064220186,,
1760475868.5690398,0,-0.87994384765625,0.124267578125,0.1253662109375,9.404580152671755,-136.793893129771,-48.86259541984733,469.72477064220186,-25.59633027522936,-16.88073394495413,,
1760475868.5798533,0,-0.87982177734375,0.12432861328125,0.12530517578125,9.419847328244275,-138.74809160305344,-62.54198473282442,962.9357798165138,-25.504587155963304,-16.605504587155963,,
1760475868.601258,0,-0.879638671875,0.12432861328125,0.12542724609375,9.442748091603054,-134.83969465648855,-37.13740458015267,986.422018348624,-24.95412844036697,-16.51376146788991,,
1760475868.611991,0,-0.8795166015625,0.12420654296875,0.1253662109375,9.412213740458014,-127.02290076335878,-33.229007633587784,563.6697247706422,-25.68807339449541,-16.422018348623855,,
1760475868.6334102,0,-0.87933349609375,0.12420654296875,0.12530517578125,9.412213740458014,-152.42748091603053,-60.58778625954199,751.559633027523,-24.95412844036697,-16.88073394495413,,
1760475868.6548984,0,-0.87921142578125,0.12432861328125,0.12548828125,9.427480916030534,-166.10687022900763,-64.49618320610686,915.9633027522935,-25.504587155963304,-16.88073394495413,,
1760475868.6656995,0,-0.8790283203125,0.124267578125,0.12530517578125,9.412213740458014,-132.8854961832061,-37.13740458015267,845.5045871559633,-25.504587155963304,-16.422018348623855,,
1760475868.6870954,0,-0.87890625,0.1243896484375,0.1253662109375,9.404580152671755,-173.9236641221374,-68.40458015267176,751.559633027523,-25.412844036697248,-16.422018348623855,,
1760475868.7295668,0,-0.87872314453125,0.12432861328125,0.12530517578125,9.412213740458014,-158.29007633587787,-70.3587786259542,540.1834862385322,-25.871559633027523,-17.24770642201835,,
1760475868.7403808,0,-0.87860107421875,0.12432861328125,0.12542724609375,9.435114503816791,-132.8854961832061,-39.09160305343512,657.6146788990826,-24.770642201834864,-17.24770642201835,,
1760475868.7619,0,-0.87841796875,0.1243896484375,0.12554931640625,9.435114503816791,-136.793893129771,-54.725190839694655,563.6697247706422,-25.779816513761467,-17.79816513761468,,
1760475868.7726955,0,-0.8782958984375,0.124267578125,0.12530517578125,9.427480916030534,-189.55725190839692,-39.09160305343512,587.1559633027523,-25.229357798165136,-16.69724770642202,,
1760475868.7940743,0,-0.87811279296875,0.12432861328125,0.125244140625,9.396946564885496,-168.06106870229007,-41.045801526717554,234.86238532110093,-25.963302752293576,-17.24770642201835,,
1760475868.8153684,0,-0.87799072265625,0.12445068359375,0.12548828125,9.427480916030534,-168.06106870229007,-11.732824427480915,328.8073394495413,-25.504587155963304,-16.422018348623855,,
1760475868.8261473,0,-0.8778076171875,0.124267578125,0.12542724609375,9.419847328244275,-160.24427480916032,-21.50381679389313,681.1009174311927,-25.871559633027523,-16.88073394495413,,
1760475868.8474004,0,-0.877685546875,0.1243896484375,0.12542724609375,9.412213740458014,-158.29007633587787,-37.13740458015267,493.2110091743119,-25.59633027522936,-16.88073394495413,,
1760475868.8580537,0,-0.87750244140625,0.12432861328125,0.12542724609375,9.435114503816791,-134.83969465648855,-33.229007633587784,610.6422018348624,-24.95412844036697,-16.88073394495413,,
1760475868.8792973,0,-0.87738037109375,0.12432861328125,0.12542724609375,9.412213740458014,-115.29770992366412,-54.725190839694655,681.1009174311927,-25.412844036697248,-16.788990825688074,,
1760475868.9110432,0,-0.877197265625,0.12420654296875,0.1253662109375,9.419847328244275,-150.4732824427481,-29.3206106870229,328.8073394495413,-24.86238532110092,-16.972477064220186,,
1760475868.9219346,0,-0.8770751953125,0.1243896484375,0.125244140625,9.404580152671755,-121.16030534351144,-27.366412213740457,563.6697247706422,-25.59633027522936,-16.422018348623855,,
1760475868.9433055,0,-0.87689208984375,0.1243896484375,0.1253662109375,9.427480916030534,-173.9236641221374,1.954198473282443,375.7798165137615,-25.963302752293576,-16.69724770642202,,
1760475868.9750464,0,-0.87677001953125,0.12420654296875,0.12542724609375,9.427480916030534,-136.793893129771,-15.641221374045802,822.0183486238533,-24.86238532110092,-16.69724770642202,,
1760475868.9858265,0,-0.8765869140625,0.12432861328125,0.12542724609375,9.435114503816791,-150.4732824427481,-70.3587786259542,540.1834862385322,-25.871559633027523,-17.24770642201835,,
1760475869.0071862,0,-0.87646484375,0.1243896484375,0.1253662109375,9.427480916030534,-144.61068702290078,-43.0,704.5871559633028,-25.045871559633028,-16.605504587155963,,
1760475869.0179524,0,-0.87628173828125,0.124267578125,0.12518310546875,9.419847328244275,-154.38167938931298,-27.366412213740457,446.2385321100918,-25.68807339449541,-16.51376146788991,,
1760475869.039324,0,-0.87615966796875,0.12432861328125,0.12530517578125,9.404580152671755,-162.19847328244273,-9.778625954198471,634.1284403669725,-26.146788990825687,-16.972477064220186,,
1760475869.0710552,0,-0.8759765625,0.12432861328125,0.12554931640625,9.412213740458014,-148.51908396946564,-33.229007633587784,399.2660550458716,-25.412844036697248,-16.788990825688074,,
1760475869.0819428,0,-0.8758544921875,0.1243896484375,0.1253662109375,9.404580152671755,-156.33587786259542,-78.17557251908397,657.6146788990826,-25.229357798165136,-17.431192660550458,,
1760475869.1032655,0,-0.87567138671875,0.12432861328125,0.1253662109375,9.404580152671755,-142.65648854961833,-33.229007633587784,657.6146788990826,-24.95412844036697,-16.972477064220186,,
1760475869.1350713,0,-0.87554931640625,0.12432861328125,0.12542724609375,9.419847328244275,-130.93129770992363,-41.045801526717554,798.5321100917431,-25.871559633027523,-16.788990825688074,,
1760475869.1458392,0,-0.8753662109375,0.124267578125,0.125244140625,9.419847328244275,-154.38167938931298,-58.63358778625954,634.1284403669725,-25.779816513761467,-16.422018348623855,,
1760475869.1672466,0,-0.875244140625,0.12420654296875,0.1253662109375,9.396946564885496,-158.29007633587787,-33.229007633587784,845.5045871559633,-24.95412844036697,-17.06422018348624,,
1760475869.199105,0,-0.87506103515625,0.12420654296875,0.12548828125,9.427480916030534,-130.93129770992363,-52.770992366412216,845.5045871559633,-25.137614678899084,-17.155963302752294,,
1760475869.20989,0,-0.87493896484375,0.1243896484375,0.12548828125,9.419847328244275,-148.51908396946564,-41.045801526717554,728.0733944954129,-25.68807339449541,-17.06422018348624,,
1760475869.2312448,0,-0.874755859375,0.12432861328125,0.1253662109375,9.442748091603054,-166.10687022900763,-54.725190839694655,587.1559633027523,-25.59633027522936,-17.24770642201835,,
1760475869.2419622,0,-0.8746337890625,0.12432861328125,0.12548828125,9.419847328244275,-152.42748091603053,-35.18320610687023,798.5321100917431,-25.229357798165136,-16.3302752293578,,
1760475869.2634163,0,-0.87445068359375,0.12432861328125,0.1253662109375,9.404580152671755,-142.65648854961833,-44.954198473282446,775.045871559633,-25.963302752293576,-16.69724770642202,,
1760475869.2741892,0,-0.87432861328125,0.1243896484375,0.1253662109375,9.419847328244275,-115.29770992366412,-50.81679389312977,657.6146788990826,-25.68807339449541,-17.06422018348624,,
1760475869.285138,0,-0.8741455078125,0.124267578125,0.125244140625,9.419847328244275,-175.87786259541986,-31.27480916030534,587.1559633027523,-25.68807339449541,-16.422018348623855,,
1760475869.31721,0,-0.8740234375,0.12432861328125,0.12530517578125,9.427480916030534,-154.38167938931298,-43.0,634.1284403669725,-25.68807339449541,-17.155963302752294,,
1760475869.3490765,0,-0.87384033203125,0.1243896484375,0.1253662109375,9.396946564885496,-158.29007633587787,-54.725190839694655,516.6972477064221,-25.137614678899084,-17.06422018348624,,
1760475869.3598635,0,-0.87371826171875,0.12432861328125,0.1253662109375,9.419847328244275,-138.74809160305344,-17.595419847328245,798.5321100917431,-25.779816513761467,-16.51376146788991,,
1760475869.3812208,0,-0.87353515625,0.124267578125,0.1253662109375,9.419847328244275,-170.01526717557252,-37.13740458015267,681.1009174311927,-25.321100917431195,-16.238532110091743,,
1760475869.3919306,0,-0.8734130859375,0.12445068359375,0.12542724609375,9.412213740458014,-152.42748091603053,-21.50381679389313,422.7522935779817,-25.504587155963304,-17.06422018348624,,
1760475869.413328,0,-0.87322998046875,0.124267578125,0.125244140625,9.396946564885496,-146.5648854961832,-52.770992366412216,657.6146788990826,-24.95412844036697,-16.69724770642202,,
1760475869.4242167,0,-0.87310791015625,0.1243896484375,0.12542724609375,9.427480916030534,-121.16030534351144,-27.366412213740457,587.1559633027523,-25.229357798165136,-16.51376146788991,,
1760475869.4454577,0,-0.8729248046875,0.1243896484375,0.1253662109375,9.412213740458014,-140.70229007633588,-46.908396946564885,751.559633027523,-25.504587155963304,-16.51376146788991,,
1760475869.4773102,0,-0.872802734375,0.12445068359375,0.12542724609375,9.427480916030534,-132.8854961832061,-46.908396946564885,657.6146788990826,-24.95412844036697,-16.972477064220186,,
1760475869.488026,0,-0.87261962890625,0.1241455078125,0.12542724609375,9.419847328244275,-162.19847328244273,-64.49618320610686,634.1284403669725,-25.229357798165136,-16.972477064220186,,
1760475869.509411,0,-0.87249755859375,0.124267578125,0.1253662109375,9.404580152671755,-179.78625954198472,-29.3206106870229,657.6146788990826,-24.770642201834864,-16.69724770642202,,
1760475869.5413225,0,-0.872314453125,0.1243896484375,0.12530517578125,9.404580152671755,-170.01526717557252,-52.770992366412216,798.5321100917431,-25.229357798165136,-17.339449541284406,,
1760475869.551991,0,-0.8721923828125,0.12432861328125,0.1253662109375,9.435114503816791,-156.33587786259542,-35.18320610687023,751.559633027523,-25.229357798165136,-17.06422018348624,,
1760475869.5730188,0,-0.87200927734375,0.12432861328125,0.12548828125,9.412213740458014,-142.65648854961833,-50.81679389312977,657.6146788990826,-25.229357798165136,-17.24770642201835,,
1760475869.5835392,0,-0.87188720703125,0.12432861328125,0.125244140625,9.435114503816791,-132.8854961832061,-31.27480916030534,610.6422018348624,-25.59633027522936,-16.972477064220186,,
1760475869.6049154,0,-0.8717041015625,0.1243896484375,0.125244140625,9.412213740458014,-162.19847328244273,-39.09160305343512,798.5321100917431,-25.871559633027523,-16.14678899082569,,
1760475869.6362746,0,-0.87158203125,0.12432861328125,0.1253662109375,9.412213740458014,-166.10687022900763,-21.50381679389313,728.0733944954129,-25.504587155963304,-16.788990825688074,,
1760475869.6469307,0,-0.87139892578125,0.12432861328125,0.1253662109375,9.412213740458014,-123.1145038167939,-11.732824427480915,563.6697247706422,-25.229357798165136,-16.788990825688074,,
1760475869.6681983,0,-0.87127685546875,0.12432861328125,0.1253662109375,9.412213740458014,-148.51908396946564,-21.50381679389313,822.0183486238533,-25.045871559633028,-17.06422018348624,,
1760475869.699852,0,-0.87109375,0.12432861328125,0.1253662109375,9.419847328244275,-138.74809160305344,-37.13740458015267,798.5321100917431,-25.504587155963304,-16.69724770642202,,
1760475869.7105544,0,-0.8709716796875,0.124267578125,0.1253662109375,9.427480916030534,-171.96946564885496,-35.18320610687023,845.5045871559633,-25.68807339449541,-16.788990825688074,,
1760475869.731877,0,-0.87078857421875,0.1243896484375,0.12542724609375,9.419847328244275,-132.8854961832061,-50.81679389312977,634.1284403669725,-25.779816513761467,-16.88073394495413,,
1760475869.7636306,0,-0.87066650390625,0.1243896484375,0.1253662109375,9.435114503816791,-140.70229007633588,-27.366412213740457,1056.8807339449545,-24.95412844036697,-16.972477064220186,,
1760475869.7745094,0,-0.8704833984375,0.1243896484375,0.1253662109375,9.419847328244275,-117.25190839694656,-5.870229007633588,751.559633027523,-24.86238532110092,-17.06422018348624,,
1760475869.7956293,0,-0.870361328125,0.1243896484375,0.12542724609375,9.419847328244275,-173.9236641221374,-54.725190839694655,563.6697247706422,-25.137614678899084,-17.24770642201835,,
1760475869.8268216,0,-0.87017822265625,0.12432861328125,0.1253662109375,9.419847328244275,-158.29007633587787,-33.229007633587784,446.2385321100918,-25.412844036697248,-17.431192660550458,,
1760475869.8372295,0,-0.87005615234375,0.124267578125,0.12542724609375,9.404580152671755,-181.7404580152672,-58.63358778625954,540.1834862385322,-25.871559633027523,-16.88073394495413,,
1760475869.8478787,0,-0.869873046875,0.124267578125,0.12530517578125,9.427480916030534,-125.06870229007632,-23.45801526717557,775.045871559633,-25.412844036697248,-16.14678899082569,,
1760475869.8583505,0,-0.8697509765625,0.124267578125,0.12542724609375,9.412213740458014,-127.02290076335878,-11.732824427480915,657.6146788990826,-25.321100917431195,-16.88073394495413,,
1760475869.8896885,0,-0.86956787109375,0.1243896484375,0.12548828125,9.419847328244275,-148.51908396946564,-66.45038167938931,258.34862385321105,-25.045871559633028,-17.06422018348624,,
1760475869.9002552,0,-0.86944580078125,0.1243896484375,0.12542724609375,9.419847328244275,-134.83969465648855,-64.49618320610686,1009.908256880734,-25.045871559633028,-17.06422018348624,,
1760475869.921287,0,-0.8692626953125,0.124267578125,0.12530517578125,9.427480916030534,-128.9770992366412,-44.954198473282446,728.0733944954129,-25.137614678899084,-16.972477064220186,,
1760475869.9528766,0,-0.869140625,0.1243896484375,0.12542724609375,9.412213740458014,-158.29007633587787,-37.13740458015267,516.6972477064221,-25.504587155963304,-16.972477064220186,,
1760475869.9635978,0,-0.86895751953125,0.124267578125,0.12530517578125,9.427480916030534,-128.9770992366412,-48.86259541984733,610.6422018348624,-25.59633027522936,-16.422018348623855,,
1760475869.9850132,0,-0.86883544921875,0.124267578125,0.12542724609375,9.419847328244275,-164.15267175572518,-31.27480916030534,540.1834862385322,-25.229357798165136,-16.972477064220186,,
1760475869.9958262,0,-0.86865234375,0.1243896484375,0.12542724609375,9.419847328244275,-128.9770992366412,-35.18320610687023,1127.3394495412845,-24.86238532110092,-17.06422018348624,,
1760475870.0172205,0,-0.8685302734375,0.124267578125,0.1253662109375,9.427480916030534,-152.42748091603053,-54.725190839694655,728.0733944954129,-25.779816513761467,-17.339449541284406,,
1760475870.0492065,0,-0.86834716796875,0.12432861328125,0.12542724609375,9.412213740458014,-177.8320610687023,-48.86259541984733,681.1009174311927,-25.779816513761467,-17.06422018348624,,
1760475870.0599563,0,-0.86822509765625,0.12432861328125,0.12530517578125,9.412213740458014,-138.74809160305344,-37.13740458015267,328.8073394495413,-25.412844036697248,-16.605504587155963,,
1760475870.0707474,0,-0.8680419921875,0.1243896484375,0.12530517578125,9.412213740458014,-144.61068702290078,-33.229007633587784,540.1834862385322,-25.504587155963304,-16.88073394495413,,
1760475870.1024723,0,-0.867919921875,0.12445068359375,0.1253662109375,9.419847328244275,-170.01526717557252,-41.045801526717554,469.72477064220186,-25.59633027522936,-17.155963302752294,,
1760475870.113244,0,-0.86773681640625,0.12432861328125,0.12542724609375,9.419847328244275,-150.4732824427481,-56.6793893129771,422.7522935779817,-25.137614678899084,-16.88073394495413,,
1760475870.134604,0,-0.86761474609375,0.12432861328125,0.1253662109375,9.427480916030534,-162.19847328244273,-52.770992366412216,751.559633027523,-24.86238532110092,-17.61467889908257,,
1760475870.145447,0,-0.867431640625,0.1243896484375,0.1253662109375,9.435114503816791,-144.61068702290078,-23.45801526717557,845.5045871559633,-25.229357798165136,-16.69724770642202,,
1760475870.177411,0,-0.8673095703125,0.124267578125,0.12530517578125,9.404580152671755,-111.38931297709924,-29.3206106870229,516.6972477064221,-25.229357798165136,-17.155963302752294,,
1760475870.1988497,0,-0.86712646484375,0.1243896484375,0.12548828125,9.427480916030534,-146.5648854961832,-33.229007633587784,540.1834862385322,-24.95412844036697,-16.238532110091743,,
1760475870.209596,0,-0.86700439453125,0.124267578125,0.125244140625,9.412213740458014,-150.4732824427481,-37.13740458015267,516.6972477064221,-25.045871559633028,-17.155963302752294,,
1760475870.2310152,0,-0.8668212890625,0.124267578125,0.12542724609375,9.435114503816791,-134.83969465648855,-23.45801526717557,634.1284403669725,-25.229357798165136,-16.788990825688074,,
1760475870.2629647,0,-0.86669921875,0.12432861328125,0.1253662109375,9.419847328244275,-171.96946564885496,-13.687022900763358,986.422018348624,-24.770642201834864,-17.706422018348626,,
1760475870.2737367,0,-0.86651611328125,0.12432861328125,0.12548828125,9.412213740458014,-166.10687022900763,-23.45801526717557,751.559633027523,-25.321100917431195,-16.788990825688074,,
1760475870.295091,0,-0.86639404296875,0.124267578125,0.12548828125,9.427480916030534,-132.8854961832061,-1.9618320610687023,822.0183486238533,-25.137614678899084,-16.972477064220186,,
1760475870.3269749,0,-0.8662109375,0.1243896484375,0.12530517578125,9.412213740458014,-158.29007633587787,-66.45038167938931,892.4770642201836,-24.95412844036697,-16.3302752293578,,
1760475870.3377233,0,-0.8660888671875,0.12432861328125,0.12530517578125,9.435114503816791,-138.74809160305344,-35.18320610687023,728.0733944954129,-25.321100917431195,-16.788990825688074,,
1760475870.3590577,0,-0.86590576171875,0.124267578125,0.1253662109375,9.419847328244275,-156.33587786259542,-27.366412213740457,751.559633027523,-25.504587155963304,-16.88073394495413,,
1760475870.3909333,0,-0.86578369140625,0.12420654296875,0.12518310546875,9.427480916030534,-170.01526717557252,-46.908396946564885,657.6146788990826,-24.95412844036697,-17.06422018348624,,
1760475870.4016376,0,-0.8656005859375,0.124267578125,0.1253662109375,9.435114503816791,-146.5648854961832,-43.0,634.1284403669725,-25.779816513761467,-16.788990825688074,,
1760475870.423032,0,-0.865478515625,0.1243896484375,0.12542724609375,9.435114503816791,-158.29007633587787,-29.3206106870229,751.559633027523,-24.4954128440367,-17.706422018348626,,
1760475870.4338253,0,-0.86529541015625,0.1243896484375,0.1253662109375,9.427480916030534,-148.51908396946564,-35.18320610687023,915.9633027522935,-25.68807339449541,-16.422018348623855,,
1760475870.455066,0,-0.86517333984375,0.12432861328125,0.12542724609375,9.419847328244275,-185.6488549618321,-52.770992366412216,563.6697247706422,-25.504587155963304,-16.14678899082569,,
1760475870.4658432,0,-0.864990234375,0.12432861328125,0.12542724609375,9.419847328244275,-144.61068702290078,-50.81679389312977,962.9357798165138,-25.321100917431195,-16.605504587155963,,
1760475870.4872408,0,-0.8648681640625,0.1243896484375,0.12542724609375,9.419847328244275,-173.9236641221374,-70.3587786259542,516.6972477064221,-25.779816513761467,-16.972477064220186,,
1760475870.508432,0,-0.86468505859375,0.124267578125,0.12542724609375,9.412213740458014,-107.48091603053436,-58.63358778625954,798.5321100917431,-25.137614678899084,-17.431192660550458,,
1760475870.5191884,0,-0.86456298828125,0.1243896484375,0.12542724609375,9.419847328244275,-140.70229007633588,-58.63358778625954,587.1559633027523,-25.321100917431195,-16.788990825688074,,
1760475870.540486,0,-0.8643798828125,0.1243896484375,0.1253662109375,9.419847328244275,-136.793893129771,-44.954198473282446,915.9633027522935,-25.504587155963304,-16.238532110091743,,
1760475870.5724182,0,-0.8642578125,0.1243896484375,0.12554931640625,9.419847328244275,-132.8854961832061,-27.366412213740457,728.0733944954129,-25.321100917431195,-16.51376146788991,,
1760475870.5831933,0,-0.86407470703125,0.12432861328125,0.12530517578125,9.412213740458014,-181.7404580152672,-9.778625954198471,281.8348623853211,-25.871559633027523,-16.972477064220186,,
1760475870.6044643,0,-0.86395263671875,0.12432861328125,0.12530517578125,9.435114503816791,-154.38167938931298,-27.366412213740457,587.1559633027523,-25.229357798165136,-16.88073394495413,,
1760475870.6358602,0,-0.86376953125,0.1243896484375,0.12548828125,9.435114503816791,-134.83969465648855,-41.045801526717554,915.9633027522935,-25.229357798165136,-17.155963302752294,,
1760475870.6464958,0,-0.8636474609375,0.12432861328125,0.12548828125,9.396946564885496,-175.87786259541986,-56.6793893129771,587.1559633027523,-24.678899082568808,-17.24770642201835,,
1760475870.6677976,0,-0.86346435546875,0.12432861328125,0.12548828125,9.412213740458014,-142.65648854961833,-41.045801526717554,352.2935779816514,-26.146788990825687,-16.605504587155963,,
1760475870.6786268,0,-0.86334228515625,0.12420654296875,0.12530517578125,9.435114503816791,-164.15267175572518,-21.50381679389313,915.9633027522935,-25.321100917431195,-17.06422018348624,,
1760475870.6998062,0,-0.8631591796875,0.124267578125,0.1253662109375,9.435114503816791,-160.24427480916032,-19.549618320610687,657.6146788990826,-25.321100917431195,-16.51376146788991,,
1760475870.7315898,0,-0.863037109375,0.124267578125,0.12542724609375,9.404580152671755,-140.70229007633588,-25.41221374045801,422.7522935779817,-25.137614678899084,-17.79816513761468,,
1760475870.742506,0,-0.86285400390625,0.124267578125,0.12530517578125,9.412213740458014,-128.9770992366412,-39.09160305343512,446.2385321100918,-25.59633027522936,-16.605504587155963,,
1760475870.763969,0,-0.86273193359375,0.12445068359375,0.1253662109375,9.412213740458014,-148.51908396946564,-33.229007633587784,728.0733944954129,-25.045871559633028,-16.69724770642202,,
1760475870.785251,0,-0.862548828125,0.12432861328125,0.1253662109375,9.404580152671755,-148.51908396946564,-56.6793893129771,328.8073394495413,-25.229357798165136,-16.788990825688074,,
1760475870.7960193,0,-0.8624267578125,0.1243896484375,0.12530517578125,9.419847328244275,-158.29007633587787,-29.3206106870229,634.1284403669725,-25.59633027522936,-17.24770642201835,,
1760475870.8173542,0,-0.86224365234375,0.1243896484375,0.1253662109375,9.435114503816791,-160.24427480916032,-43.0,234.86238532110093,-25.59633027522936,-16.51376146788991,,
1760475870.8281107,0,-0.86212158203125,0.1243896484375,0.1253662109375,9.435114503816791,-134.83969465648855,1.954198473282443,681.1009174311927,-25.321100917431195,-16.14678899082569,,
1760475870.8493328,0,-0.8619384765625,0.12432861328125,0.1253662109375,9.435114503816791,-140.70229007633588,-37.13740458015267,939.4495412844036,-25.412844036697248,-17.155963302752294,,
1760475870.8810716,0,-0.86181640625,0.1243896484375,0.12554931640625,9.412213740458014,-121.16030534351144,-19.549618320610687,1033.3944954128442,-25.137614678899084,-17.24770642201835,,
1760475870.8918452,0,-0.86163330078125,0.12420654296875,0.12548828125,9.419847328244275,-156.33587786259542,-54.725190839694655,493.2110091743119,-25.412844036697248,-16.69724770642202,,
1760475870.9131174,0,-0.86151123046875,0.12432861328125,0.1253662109375,9.427480916030534,-179.78625954198472,-27.366412213740457,399.2660550458716,-25.504587155963304,-16.972477064220186,,
1760475870.955618,0,-0.861328125,0.12432861328125,0.12542724609375,9.419847328244275,-150.4732824427481,-33.229007633587784,516.6972477064221,-25.137614678899084,-16.788990825688074,,
1760475870.9663324,0,-0.8612060546875,0.12445068359375,0.12542724609375,9.419847328244275,-193.46564885496184,-64.49618320610686,681.1009174311927,-25.68807339449541,-17.155963302752294,,
1760475870.9876838,0,-0.86102294921875,0.124267578125,0.1253662109375,9.435114503816791,-138.74809160305344,-44.954198473282446,775.045871559633,-24.770642201834864,-16.972477064220186,,
1760475871.0089817,0,-0.86090087890625,0.12420654296875,0.1253662109375,9.412213740458014,-166.10687022900763,-39.09160305343512,728.0733944954129,-25.229357798165136,-16.88073394495413,,
1760475871.0198526,0,-0.8607177734375,0.12432861328125,0.1253662109375,9.427480916030534,-138.74809160305344,-17.595419847328245,587.1559633027523,-25.779816513761467,-17.155963302752294,,
1760475871.0409856,0,-0.860595703125,0.12432861328125,0.1253662109375,9.419847328244275,-160.24427480916032,-44.954198473282446,446.2385321100918,-25.59633027522936,-16.972477064220186,,
1760475871.0517268,0,-0.86041259765625,0.1243896484375,0.1253662109375,9.404580152671755,-164.15267175572518,-31.27480916030534,634.1284403669725,-25.321100917431195,-16.422018348623855,,
1760475871.0733137,0,-0.86029052734375,0.124267578125,0.1253662109375,9.412213740458014,-150.4732824427481,-43.0,610.6422018348624,-25.871559633027523,-17.155963302752294,,
1760475871.0839982,0,-0.860107421875,0.12432861328125,0.12542724609375,9.435114503816791,-156.33587786259542,-25.41221374045801,657.6146788990826,-25.412844036697248,-17.24770642201835,,
1760475871.1049917,0,-0.8599853515625,0.124267578125,0.12530517578125,9.435114503816791,-134.83969465648855,-21.50381679389313,469.72477064220186,-25.321100917431195,-16.3302752293578,,
1760475871.1369872,0,-0.85980224609375,0.124267578125,0.12542724609375,9.427480916030534,-128.9770992366412,7.816793893129771,305.3211009174312,-26.055045871559635,-16.972477064220186,,
1760475871.1476898,0,-0.85968017578125,0.12445068359375,0.1253662109375,9.412213740458014,-121.16030534351144,-64.49618320610686,798.5321100917431,-26.146788990825687,-16.972477064220186,,
1760475871.1688657,0,-0.8594970703125,0.12432861328125,0.1253662109375,9.419847328244275,-179.78625954198472,-35.18320610687023,610.6422018348624,-25.321100917431195,-17.24770642201835,,
1760475871.2006142,0,-0.859375,0.1243896484375,0.12542724609375,9.412213740458014,-170.01526717557252,-80.12977099236642,822.0183486238533,-25.504587155963304,-17.24770642201835,,
1760475871.2113304,0,-0.85919189453125,0.12432861328125,0.12530517578125,9.427480916030534,-154.38167938931298,-23.45801526717557,493.2110091743119,-24.587155963302752,-17.06422018348624,,
1760475871.2325764,0,-0.85906982421875,0.12432861328125,0.1253662109375,9.419847328244275,-132.8854961832061,-37.13740458015267,422.7522935779817,-25.779816513761467,-16.788990825688074,,
1760475871.2433672,0,-0.85888671875,0.12432861328125,0.12542724609375,9.419847328244275,-181.7404580152672,-33.229007633587784,540.1834862385322,-24.95412844036697,-17.155963302752294,,
1760475871.2647042,0,-0.8587646484375,0.12432861328125,0.1253662109375,9.427480916030534,-150.4732824427481,-41.045801526717554,422.7522935779817,-25.504587155963304,-17.431192660550458,,
1760475871.2962666,0,-0.85858154296875,0.124267578125,0.1253662109375,9.419847328244275,-156.33587786259542,-60.58778625954199,540.1834862385322,-25.137614678899084,-16.605504587155963,,
1760475871.3069746,0,-0.85845947265625,0.12432861328125,0.12530517578125,9.427480916030534,-134.83969465648855,-25.41221374045801,610.6422018348624,-25.779816513761467,-17.522935779816514,,
1760475871.3281906,0,-0.8582763671875,0.12432861328125,0.1253662109375,9.419847328244275,-162.19847328244273,-37.13740458015267,939.4495412844036,-26.146788990825687,-17.06422018348624,,
1760475871.3390765,0,-0.858154296875,0.12445068359375,0.1253662109375,9.404580152671755,-156.33587786259542,-66.45038167938931,493.2110091743119,-25.963302752293576,-17.24770642201835,,
1760475871.3604128,0,-0.85797119140625,0.12432861328125,0.12530517578125,9.412213740458014,-128.9770992366412,-31.27480916030534,775.045871559633,-26.42201834862385,-17.339449541284406,,
1760475871.3922193,0,-0.85784912109375,0.1243896484375,0.1253662109375,9.404580152671755,-156.33587786259542,-62.54198473282442,493.2110091743119,-25.779816513761467,-17.06422018348624,,
1760475871.402971,0,-0.857666015625,0.12432861328125,0.12542724609375,9.427480916030534,-148.51908396946564,-52.770992366412216,939.4495412844036,-25.137614678899084,-17.06422018348624,,
1760475871.424303,0,-0.8575439453125,0.124267578125,0.1253662109375,9.419847328244275,-146.5648854961832,-9.778625954198471,751.559633027523,-26.055045871559635,-16.69724770642202,,
1760475871.4560664,0,-0.85736083984375,0.12432861328125,0.12530517578125,9.419847328244275,-179.78625954198472,-19.549618320610687,375.7798165137615,-24.770642201834864,-17.339449541284406,,
1760475871.4668975,0,-0.85723876953125,0.1243896484375,0.125244140625,9.419847328244275,-158.29007633587787,-56.6793893129771,728.0733944954129,-24.86238532110092,-16.51376146788991,,
1760475871.4883723,0,-0.8570556640625,0.124267578125,0.1253662109375,9.419847328244275,-148.51908396946564,-17.595419847328245,704.5871559633028,-25.045871559633028,-16.88073394495413,,
1760475871.5203514,0,-0.85693359375,0.1243896484375,0.12542724609375,9.427480916030534,-148.51908396946564,-41.045801526717554,986.422018348624,-25.321100917431195,-16.51376146788991,,
1760475871.5311463,0,-0.85675048828125,0.124267578125,0.1253662109375,9.419847328244275,-156.33587786259542,-19.549618320610687,704.5871559633028,-25.504587155963304,-16.972477064220186,,
1760475871.5525246,0,-0.85662841796875,0.1243896484375,0.1253662109375,9.412213740458014,-170.01526717557252,-74.26717557251908,516.6972477064221,-25.229357798165136,-17.155963302752294,,
1760475871.563307,0,-0.8564453125,0.12432861328125,0.12530517578125,9.419847328244275,-160.24427480916032,-19.549618320610687,634.1284403669725,-25.412844036697248,-16.788990825688074,,
1760475871.5847654,0,-0.8563232421875,0.12432861328125,0.1253662109375,9.427480916030534,-144.61068702290078,-33.229007633587784,962.9357798165138,-25.963302752293576,-17.155963302752294,,
1760475871.5954566,0,-0.85614013671875,0.12420654296875,0.12548828125,9.412213740458014,-156.33587786259542,-31.27480916030534,634.1284403669725,-25.321100917431195,-16.788990825688074,,
1760475871.6169295,0,-0.85601806640625,0.12420654296875,0.12542724609375,9.427480916030534,-136.793893129771,-70.3587786259542,704.5871559633028,-25.59633027522936,-16.788990825688074,,
1760475871.6489246,0,-0.8558349609375,0.1243896484375,0.1253662109375,9.442748091603054,-166.10687022900763,-54.725190839694655,657.6146788990826,-25.137614678899084,-17.155963302752294,,
1760475871.6597524,0,-0.855712890625,0.1243896484375,0.1253662109375,9.412213740458014,-162.19847328244273,-29.3206106870229,681.1009174311927,-24.95412844036697,-16.88073394495413,,
1760475871.680935,0,-0.85552978515625,0.124267578125,0.1253662109375,9.412213740458014,-140.70229007633588,-29.3206106870229,540.1834862385322,-25.59633027522936,-16.788990825688074,,
1760475871.712992,0,-0.85540771484375,0.124267578125,0.1253662109375,9.419847328244275,-132.8854961832061,-19.549618320610687,845.5045871559633,-25.59633027522936,-16.88073394495413,,
1760475871.723801,0,-0.855224609375,0.12432861328125,0.12542724609375,9.427480916030534,-170.01526717557252,-46.908396946564885,352.2935779816514,-25.963302752293576,-17.339449541284406,,
1760475871.734597,0,-0.8551025390625,0.12432861328125,0.1253662109375,9.427480916030534,-152.42748091603053,-56.6793893129771,587.1559633027523,-25.779816513761467,-16.69724770642202,,
1760475871.7454638,0,-0.85491943359375,0.12432861328125,0.1253662109375,9.412213740458014,-82.07633587786259,-35.18320610687023,540.1834862385322,-25.229357798165136,-16.788990825688074,,
