timestamp,packet_id,accel_x,accel_y,accel_z,gyro_x,gyro_y,gyro_z,mag_x,mag_y,mag_z,battery,temperature
1760462377.5702384,0,-2.450703296703297,-13.93523076923077,-18.347934065934066,-89.83969465648855,0.0305343511450381,-0.6030534351145038,23.119266055045877,2021.7431192660551,2818.1651376146788,,
1760462377.5811148,1,-0.459956043956044,79.11243956043957,202.38784615384617,15.564885496183209,15.549618320610689,9.427480916030534,-1949.3577981651376,-728.1651376146789,540.1834862385322,,
1760462377.6019454,2,-0.424021978021978,-156.38505494505495,202.4022197802198,15.587786259541986,15.541984732824428,9.404580152671755,-2066.7889908256884,-446.3302752293578,610.6422018348624,,
1760462377.6329467,3,11.347978021978024,-15.767868131868132,-18.347934065934066,-87.8854961832061,0.0305343511450381,-0.5801526717557252,20.91743119266055,1858.348623853211,2935.5963302752293,,
1760462377.6434062,4,-0.459956043956044,-156.38505494505495,202.43815384615388,15.572519083969466,15.557251908396946,9.419847328244275,-2066.7889908256884,-446.3302752293578,962.9357798165138,,
1760462377.664372,5,-0.4383956043956044,79.11243956043957,202.4597142857143,15.580152671755725,15.541984732824428,9.427480916030534,-1691.0091743119267,-469.8165137614679,657.6146788990826,,
1760462377.6748323,6,-0.4312087912087912,-156.38505494505495,202.47408791208792,15.580152671755725,15.549618320610689,9.412213740458014,-1691.0091743119267,-422.8440366972477,399.2660550458716,,
1760462377.695834,7,-0.459956043956044,79.11243956043957,202.4956483516484,15.580152671755725,15.557251908396946,9.404580152671755,-1878.8990825688077,-47.06422018348624,328.8073394495413,,
1760462377.7269742,8,-0.3952747252747253,79.11243956043957,202.53158241758243,15.587786259541986,15.557251908396946,9.435114503816791,-2301.651376146789,-305.41284403669727,868.9908256880734,,
1760462377.7583,9,-0.459956043956044,-156.38505494505495,202.54595604395607,15.557251908396946,15.557251908396946,9.427480916030534,-1996.330275229358,-328.89908256880733,657.6146788990826,,
1760462377.7688448,10,-0.4312087912087912,79.11243956043957,202.5675164835165,15.557251908396946,15.557251908396946,9.419847328244275,-1925.871559633028,-634.2201834862385,657.6146788990826,,
1760462377.820804,11,-0.4671428571428571,79.11243956043957,202.60345054945057,15.564885496183209,15.557251908396946,9.427480916030534,-2043.302752293578,-375.8715596330275,704.5871559633028,,
1760462377.8313897,12,-0.3952747252747253,-156.38505494505495,202.6178241758242,15.572519083969466,15.564885496183209,9.419847328244275,-1667.5229357798166,-634.2201834862385,657.6146788990826,,
1760462377.852347,13,-0.459956043956044,79.11243956043957,202.63938461538464,15.580152671755725,15.549618320610689,9.419847328244275,-1808.4403669724768,-328.89908256880733,704.5871559633028,,
1760462377.8835058,14,-0.4096483516483516,-156.38505494505495,202.65375824175825,15.564885496183209,15.557251908396946,9.404580152671755,-1925.871559633028,-258.4403669724771,563.6697247706422,,
1760462377.8939593,15,-0.4383956043956044,79.11243956043957,202.6753186813187,15.580152671755725,15.564885496183209,9.427480916030534,-2043.302752293578,-281.92660550458714,587.1559633027523,,
1760462377.9145002,16,-0.4527692307692308,-156.38505494505495,202.68969230769235,15.564885496183209,15.549618320610689,9.427480916030534,-1644.0366972477066,-869.0825688073394,422.7522935779817,,
1760462377.924764,17,-0.424021978021978,79.11243956043957,202.7112527472528,15.572519083969466,15.549618320610689,9.419847328244275,-1691.0091743119267,-211.4678899082569,634.1284403669725,,
1760462377.9453986,18,-0.3880879120879121,-156.38505494505495,202.7256263736264,15.557251908396946,15.557251908396946,9.412213740458014,-1550.091743119266,-258.4403669724771,634.1284403669725,,
1760462377.9763606,19,-0.4455824175824175,79.11243956043957,202.74718681318683,15.557251908396946,15.564885496183209,9.412213740458014,-2419.08256880734,-422.8440366972477,1033.3944954128442,,
1760462378.0381186,20,-0.4312087912087912,-156.38505494505495,202.7974945054945,15.580152671755725,15.549618320610689,9.412213740458014,-2137.2477064220184,-516.7889908256881,704.5871559633028,,
1760462378.048464,21,-0.4527692307692308,79.11243956043957,202.81905494505497,15.572519083969466,15.549618320610689,9.419847328244275,-1597.0642201834862,-352.38532110091745,798.5321100917431,,
1760462378.0691268,22,-0.424021978021978,-156.38505494505495,202.83342857142856,15.572519083969466,15.557251908396946,9.427480916030534,-2043.302752293578,-563.7614678899083,540.1834862385322,,
1760462378.0796232,23,-0.4383956043956044,79.11243956043957,202.85498901098904,15.564885496183209,15.549618320610689,9.419847328244275,-1808.4403669724768,-234.954128440367,587.1559633027523,,
1760462378.1313205,24,-0.4527692307692308,79.11243956043957,202.8909230769231,15.572519083969466,15.541984732824428,9.412213740458014,-1996.330275229358,-399.3577981651376,822.0183486238533,,
1760462378.1417468,25,-0.459956043956044,-156.38505494505495,202.90529670329676,15.572519083969466,15.557251908396946,9.435114503816791,-2160.7339449541287,-540.2752293577981,587.1559633027523,,
1760462378.1625278,26,-0.424021978021978,79.11243956043957,202.9268571428572,15.564885496183209,15.557251908396946,9.427480916030534,-1526.605504587156,-657.7064220183487,845.5045871559633,,
1760462378.1937785,27,-0.4096483516483516,-156.38505494505495,202.9412307692308,15.564885496183209,15.541984732824428,9.427480916030534,-1784.9541284403672,-610.7339449541284,728.0733944954129,,
1760462378.2043693,28,-0.459956043956044,79.11243956043957,202.96279120879123,15.580152671755725,15.557251908396946,9.412213740458014,-1855.4128440366972,-23.57798165137615,610.6422018348624,,
1760462378.2252429,29,-0.4096483516483516,-156.38505494505495,202.97716483516484,15.572519083969466,15.557251908396946,9.419847328244275,-1784.9541284403672,-305.41284403669727,540.1834862385322,,
1760462378.236056,30,-0.4527692307692308,79.11243956043957,202.9987252747253,15.572519083969466,15.549618320610689,9.427480916030534,-2137.2477064220184,-187.9816513761468,915.9633027522935,,
1760462378.25709,31,-0.4312087912087912,-156.38505494505495,203.0130989010989,15.580152671755725,15.541984732824428,9.412213740458014,-2301.651376146789,-681.1926605504588,516.6972477064221,,
1760462378.3470464,32,-0.4671428571428571,79.11243956043957,203.07059340659345,15.572519083969466,15.549618320610689,9.419847328244275,-2066.7889908256884,-822.1100917431193,610.6422018348624,,
1760462378.3575568,33,-0.424021978021978,-156.38505494505495,203.08496703296703,15.572519083969466,15.564885496183209,9.404580152671755,-2160.7339449541287,-469.8165137614679,704.5871559633028,,
1760462378.3887467,34,-0.3952747252747253,-156.38505494505495,203.12090109890116,15.557251908396946,15.564885496183209,9.427480916030534,-1761.467889908257,-469.8165137614679,704.5871559633028,,
1760462378.3992124,35,-0.4312087912087912,79.11243956043957,203.1424615384616,15.587786259541986,15.549618320610689,9.404580152671755,-1878.8990825688077,-211.4678899082569,469.72477064220186,,
1760462378.441101,36,-0.4671428571428571,-156.38505494505495,203.19276923076924,15.557251908396946,15.549618320610689,9.404580152671755,-1808.4403669724768,-657.7064220183487,399.2660550458716,,
1760462378.472296,37,-0.459956043956044,79.11243956043957,203.2143296703297,15.572519083969466,15.557251908396946,9.427480916030534,-2278.165137614679,-187.9816513761468,516.6972477064221,,
1760462378.5041554,38,-0.4312087912087912,-156.38505494505495,203.2287032967033,15.572519083969466,15.572519083969466,9.427480916030534,-1949.3577981651376,-845.5963302752293,610.6422018348624,,
1760462378.5352736,39,-0.4671428571428571,79.11243956043957,203.25026373626372,15.564885496183209,15.549618320610689,9.427480916030534,-2231.192660550458,-610.7339449541284,704.5871559633028,,
1760462378.545851,40,-0.4168351648351648,-156.38505494505495,203.2646373626374,15.572519083969466,15.564885496183209,9.435114503816791,-1808.4403669724768,-422.8440366972477,657.6146788990826,,
1760462378.5668323,41,-0.4312087912087912,79.11243956043957,203.28619780219785,15.580152671755725,15.549618320610689,9.419847328244275,-1925.871559633028,-94.03669724770644,352.2935779816514,,
1760462378.5982049,42,-0.4312087912087912,-156.38505494505495,203.30057142857143,15.572519083969466,84.03053435114504,215.9618320610687,187.1559633027523,186.88073394495413,113.11926605504588,,
1760462378.6087997,43,-0.5246373626373626,1.609846153846154,154.80395604395605,224.7175572519084,-121.16030534351144,1.9465648854961832,-2873.119266055046,-154.3119266055046,-234.2201834862385,,
1760462378.629697,44,-0.4958901098901099,1.724835164835165,163.9312087912088,242.3053435114504,-115.29770992366412,1.9465648854961832,-2814.4036697247707,-154.3119266055046,-257.70642201834863,,
1760462378.660985,45,-0.5318241758241758,1.6529670329670332,152.85632967032967,242.3053435114504,-119.206106870229,1.9465648854961832,-2755.6880733944954,-130.8256880733945,-210.7339449541284,,
1760462378.6715052,46,-0.6108791208791209,1.631406593406593,160.19406593406592,242.3053435114504,-125.06870229007632,1.9465648854961832,-2696.97247706422,-130.8256880733945,-257.70642201834863,,
1760462378.69249,47,-0.5461978021978022,1.5810989010989014,165.7782197802198,236.44274809160305,-123.1145038167939,1.9465648854961832,-2638.256880733945,-224.77064220183487,-234.2201834862385,,
1760462378.724341,48,-0.5461978021978022,1.7895164835164834,149.2198021978022,244.25954198473283,-127.02290076335878,1.9465648854961832,-2579.5412844036696,-177.7981651376147,-257.70642201834863,,
1760462378.7348833,49,-0.6324395604395605,1.7104615384615385,147.40153846153848,230.5801526717557,-121.16030534351144,1.9465648854961832,-2520.8256880733943,-130.8256880733945,-257.70642201834863,,
1760462378.786821,50,-0.5102637362637363,1.5595384615384615,162.04107692307696,232.53435114503816,-121.16030534351144,1.9465648854961832,-2403.394495412844,-107.3394495412844,-234.2201834862385,,
1760462378.797264,51,-0.6611868131868132,1.688901098901099,149.18386813186814,234.4885496183206,-130.93129770992363,1.9465648854961832,-2344.678899082569,-201.2844036697248,-187.24770642201835,,
1760462378.817955,52,1.3151868131868132,0.0143736263736263,160.25874725274724,234.4885496183206,-119.206106870229,1.9465648854961832,-2285.9633027522937,-154.3119266055046,-234.2201834862385,,
1760462378.8283818,53,-0.5102637362637363,1.6529670329670332,163.93839560439562,220.8091603053435,-128.9770992366412,1.9465648854961832,-2227.2477064220184,-154.3119266055046,-210.7339449541284,,
1760462378.849755,54,-0.5030769230769231,1.6601538461538463,160.33061538461538,234.4885496183206,-117.25190839694656,1.9465648854961832,-2168.532110091743,-224.77064220183487,-281.1926605504587,,
1760462378.9220848,55,-0.539010989010989,1.6673406593406594,143.74345054945056,246.21374045801528,-119.206106870229,1.9465648854961832,-1992.3853211009173,-177.7981651376147,-187.24770642201835,,
1760462378.932587,56,-0.459956043956044,1.7392087912087917,143.69314285714285,234.4885496183206,-115.29770992366412,1.9465648854961832,-1933.6697247706425,-201.2844036697248,-257.70642201834863,,
1760462378.953314,57,-0.4743296703296704,1.688901098901099,160.27312087912088,240.35114503816797,-125.06870229007632,1.9465648854961832,-1874.954128440367,-201.2844036697248,-257.70642201834863,,
1760462378.963677,58,-0.5461978021978022,1.7032747252747251,162.09138461538464,238.3969465648855,-111.38931297709924,1.9465648854961832,-1816.238532110092,-130.8256880733945,-234.2201834862385,,
1760462378.9844985,59,-0.5102637362637363,1.7320219780219783,171.27613186813187,232.53435114503816,-111.38931297709924,1.9465648854961832,-1757.5229357798164,-154.3119266055046,-234.2201834862385,,
1760462379.015708,60,-0.5533846153846155,1.7032747252747251,151.08837362637362,246.21374045801528,-113.34351145038168,1.9465648854961832,-1698.8073394495411,-177.7981651376147,-234.2201834862385,,
1760462379.0262048,61,-0.654,1.6457802197802198,151.10993406593408,234.4885496183206,-119.206106870229,1.9465648854961832,-1640.091743119266,-201.2844036697248,-234.2201834862385,,
1760462379.1298373,62,-0.6396263736263736,1.7032747252747251,167.51742857142858,234.4885496183206,-117.25190839694656,1.9465648854961832,-1346.51376146789,-154.3119266055046,-281.1926605504587,,
1760462379.14038,63,-0.5821318681318681,1.7535824175824175,169.42193406593407,248.1679389312977,-117.25190839694656,1.9465648854961832,-1287.798165137615,-201.2844036697248,-234.2201834862385,,
1760462379.17152,64,-0.5965054945054945,1.8254505494505493,158.41892307692308,232.53435114503816,-109.4351145038168,1.9465648854961832,-1229.0825688073394,-201.2844036697248,-187.24770642201835,,
1760462379.1819754,65,-0.6396263736263736,1.8110769230769237,152.8203956043956,228.6259541984733,-127.02290076335878,1.9465648854961832,-1170.366972477064,-177.7981651376147,-210.7339449541284,,
1760462379.2029424,66,-0.539010989010989,1.609846153846154,160.23,228.6259541984733,-113.34351145038168,1.9465648854961832,-1111.6513761467888,-177.7981651376147,-304.6788990825688,,
1760462379.234292,67,1.185824175824176,0.0287472527472527,162.1201318681319,234.4885496183206,-117.25190839694656,1.9465648854961832,-1052.9357798165138,-154.3119266055046,-257.70642201834863,,
1760462379.2448597,68,-0.5533846153846155,1.6529670329670332,169.4291208791209,246.21374045801528,-113.34351145038168,1.9465648854961832,-994.2201834862386,-130.8256880733945,-234.2201834862385,,
1760462379.2863646,69,-0.6899340659340659,1.7032747252747251,162.02670329670332,244.25954198473283,-113.34351145038168,1.9465648854961832,-876.7889908256882,-201.2844036697248,-281.1926605504587,,
1760462379.317629,70,-0.5677582417582419,1.631406593406593,151.0093186813187,222.763358778626,-115.29770992366412,1.9465648854961832,-759.3577981651376,-177.7981651376147,-234.2201834862385,,
1760462379.352927,71,-0.654,1.7607692307692309,169.45786813186814,244.25954198473283,-115.29770992366412,1.9465648854961832,-641.9266055045871,-224.77064220183487,-187.24770642201835,,
1760462379.384868,72,-0.5246373626373626,1.6385934065934065,176.7309230769231,242.3053435114504,-119.206106870229,1.9465648854961832,-583.2110091743119,-177.7981651376147,-257.70642201834863,,
1760462379.3953862,73,-0.5461978021978022,1.6457802197802198,160.26593406593406,242.3053435114504,-121.16030534351144,1.9465648854961832,-524.4954128440367,-177.7981651376147,-234.2201834862385,,
1760462379.4164715,74,-0.574945054945055,1.7392087912087917,152.88507692307692,214.94656488549617,-121.16030534351144,1.9465648854961832,-465.77981651376143,-154.3119266055046,-210.7339449541284,,
1760462379.4476728,75,-0.6468131868131869,1.6457802197802198,154.74646153846157,232.53435114503816,-123.1145038167939,1.9465648854961832,-348.348623853211,-154.3119266055046,-234.2201834862385,,
1760462379.4785583,76,-0.5821318681318681,1.6242197802197802,156.65096703296703,244.25954198473283,-111.38931297709924,1.9465648854961832,-289.6330275229358,-201.2844036697248,-234.2201834862385,,
1760462379.5203145,77,-0.6827472527472528,1.617032967032967,156.59347252747253,238.3969465648855,-115.29770992366412,1.9465648854961832,-172.2018348623853,-177.7981651376147,-234.2201834862385,,
1760462379.5309312,78,-0.6180659340659341,1.7176483516483516,158.3758021978022,248.1679389312977,-123.1145038167939,1.9465648854961832,-113.48623853211008,-201.2844036697248,-234.2201834862385,,
1760462379.5519316,79,-0.574945054945055,1.6601538461538463,171.26175824175823,236.44274809160305,-121.16030534351144,1.9465648854961832,-54.77064220183486,-154.3119266055046,-234.2201834862385,,
1760462379.5739863,80,-0.5605714285714286,1.7535824175824175,160.26593406593406,236.44274809160305,-111.38931297709924,1.9465648854961832,3.9449541284403673,-177.70642201834863,-281.1926605504587,,
1760462379.5845635,81,-0.574945054945055,1.7392087912087917,165.85727472527475,244.25954198473283,-113.34351145038168,1.9465648854961832,62.66055045871559,-154.22018348623854,-210.7339449541284,,
1760462379.6055813,82,-0.654,1.7535824175824175,163.86652747252748,238.3969465648855,-111.38931297709924,1.9465648854961832,121.37614678899082,-224.6788990825688,-281.1926605504587,,
1760462379.6368763,83,-0.5461978021978022,1.6601538461538463,156.59347252747253,250.12213740458012,-119.206106870229,1.9465648854961832,180.09174311926606,-154.22018348623854,-210.7339449541284,,
1760462379.6473987,84,-0.5533846153846155,1.688901098901099,158.35424175824176,228.6259541984733,-117.25190839694656,1.9465648854961832,238.80733944954127,-201.19266055045875,-187.24770642201835,,
1760462379.6684203,85,-0.5246373626373626,1.688901098901099,154.7608351648352,238.3969465648855,-119.206106870229,1.9465648854961832,297.5229357798165,-154.22018348623854,-210.7339449541284,,
1760462379.6996655,86,-0.539010989010989,1.6817142857142855,164.06775824175827,238.3969465648855,-127.02290076335878,1.9465648854961832,356.23853211009174,-177.70642201834863,-234.2201834862385,,
1760462379.7100232,87,-0.5965054945054945,1.6817142857142855,158.54828571428573,242.3053435114504,-123.1145038167939,1.9465648854961832,414.95412844036696,-130.73394495412845,-257.70642201834863,,
1760462379.7309225,88,-0.574945054945055,1.7032747252747251,147.38716483516484,232.53435114503816,-115.29770992366412,1.9465648854961832,473.6697247706422,-177.70642201834863,-281.1926605504587,,
1760462379.8551276,89,-0.6252527472527473,1.5236043956043956,156.6869010989011,236.44274809160305,-121.16030534351144,1.9465648854961832,825.9633027522935,-201.19266055045875,-281.1926605504587,,
1760462379.8657367,90,-0.6252527472527473,1.6601538461538463,158.40454945054947,240.35114503816797,-121.16030534351144,1.9465648854961832,884.6788990825688,-177.70642201834863,-210.7339449541284,,
1760462379.886497,91,-0.5821318681318681,1.7320219780219783,167.59648351648352,232.53435114503816,-101.61832061068702,1.9465648854961832,943.394495412844,-201.19266055045875,-210.7339449541284,,
1760462379.8968158,92,-0.6971208791208792,1.5595384615384615,158.46204395604397,236.44274809160305,-109.4351145038168,1.9465648854961832,1002.1100917431193,-177.70642201834863,-234.2201834862385,,
1760462379.9175603,93,-0.6108791208791209,1.7392087912087917,162.05545054945057,240.35114503816797,-107.48091603053436,1.9465648854961832,1060.8256880733943,-154.22018348623854,-234.2201834862385,,
1760462379.948885,94,-0.5246373626373626,1.6817142857142855,160.20843956043956,-240.38167938931295,-111.38931297709924,1.9465648854961832,1119.5412844036698,-201.19266055045875,-210.7339449541284,,
1760462379.959734,95,-0.6324395604395605,1.6457802197802198,162.14169230769232,244.25954198473283,-117.25190839694656,1.9465648854961832,1178.256880733945,-224.6788990825688,-234.2201834862385,,
1760462379.980619,96,-0.6324395604395605,1.7535824175824175,151.13149450549452,242.3053435114504,-111.38931297709924,1.9465648854961832,1236.97247706422,-224.6788990825688,-210.7339449541284,,
1760462380.0427344,97,-0.5461978021978022,1.6457802197802198,152.8635164835165,222.763358778626,-113.34351145038168,1.9465648854961832,1413.119266055046,-177.70642201834863,-234.2201834862385,,
1760462380.0736704,98,-0.654,1.6457802197802198,162.15606593406596,246.21374045801528,-125.06870229007632,1.9465648854961832,1530.5504587155965,-177.70642201834863,-257.70642201834863,,
1760462380.104709,99,-0.6324395604395605,1.7607692307692309,156.60065934065935,234.4885496183206,-125.06870229007632,1.9465648854961832,1589.2660550458716,-154.22018348623854,-234.2201834862385,,
1760462380.1151476,100,-0.6611868131868132,1.6385934065934065,165.77103296703297,228.6259541984733,-109.4351145038168,1.9465648854961832,1647.9816513761466,-177.70642201834863,-281.1926605504587,,
1760462380.1362858,101,-0.4958901098901099,1.7392087912087917,167.51742857142858,238.3969465648855,-117.25190839694656,1.9465648854961832,1706.697247706422,-177.70642201834863,-234.2201834862385,,
1760462380.1779373,102,-0.5965054945054945,1.6385934065934065,171.3120659340659,238.3969465648855,-105.52671755725191,-119.21374045801528,23.39449541284404,1824.1284403669724,-130.73394495412845,,
1760462380.2092726,103,-0.5246373626373626,1.609846153846154,169.4866153846154,230.5801526717557,-123.1145038167939,1.9465648854961832,1882.844036697248,-201.19266055045875,-257.70642201834863,,
1760462380.2199285,104,-0.6468131868131869,1.7463956043956046,156.54316483516484,228.6259541984733,-123.1145038167939,1.9465648854961832,1941.5596330275228,-177.70642201834863,-257.70642201834863,,
1760462380.2408395,105,-0.6324395604395605,1.7176483516483516,167.57492307692308,216.90076335877865,-121.16030534351144,1.9465648854961832,2000.275229357798,-177.70642201834863,-210.7339449541284,,
1760462380.2721577,106,-0.5605714285714286,1.7032747252747251,156.65096703296703,224.7175572519084,-117.25190839694656,1.9465648854961832,2058.990825688073,-177.70642201834863,-257.70642201834863,,
1760462380.2826424,107,-0.574945054945055,1.6673406593406594,152.89945054945056,222.763358778626,-111.38931297709924,1.9465648854961832,2117.7064220183483,-201.19266055045875,-234.2201834862385,,
1760462380.3656294,108,-0.6324395604395605,1.7607692307692309,171.26894505494505,230.5801526717557,-115.29770992366412,1.9465648854961832,2352.568807339449,-177.70642201834863,-281.1926605504587,,
1760462380.3762295,109,-0.6611868131868132,1.6745274725274726,163.86652747252748,238.3969465648855,-121.16030534351144,1.9465648854961832,2411.2844036697247,-201.19266055045875,-234.2201834862385,,
1760462380.3975067,110,-0.539010989010989,1.6745274725274726,158.382989010989,224.7175572519084,-101.61832061068702,1.9465648854961832,2470.0,-154.22018348623854,-234.2201834862385,,
1760462380.5217345,111,-0.6396263736263736,1.609846153846154,151.21054945054945,236.44274809160305,-117.25190839694656,1.9465648854961832,2822.293577981651,-177.70642201834863,-257.70642201834863,,
1760462380.532364,112,-0.6036923076923078,1.7104615384615385,167.64679120879123,232.53435114503816,-111.38931297709924,1.9465648854961832,2881.0091743119265,-224.6788990825688,-281.1926605504587,,
1760462380.5536144,113,-0.6180659340659341,1.7463956043956046,158.39736263736265,236.44274809160305,-117.25190839694656,1.9465648854961832,2939.7247706422017,-177.70642201834863,-257.70642201834863,,
1760462380.6058407,114,-0.4887032967032967,1.7176483516483516,156.5216043956044,-248.19847328244276,-132.8854961832061,1.9465648854961832,-2896.605504587156,-201.19266055045875,-257.70642201834863,,
1760462380.6164403,115,-0.5102637362637363,1.5523516483516484,151.10274725274726,220.8091603053435,-115.29770992366412,1.9465648854961832,-2837.8899082568805,-201.19266055045875,-234.2201834862385,,
1760462380.64781,116,-0.6324395604395605,1.5810989010989014,154.78958241758244,222.763358778626,-121.16030534351144,1.9465648854961832,-2779.1743119266057,-177.70642201834863,-234.2201834862385,,
1760462380.679353,117,-0.5102637362637363,1.7535824175824175,167.60367032967034,226.67175572519085,-115.29770992366412,1.9465648854961832,-2720.4587155963304,-177.70642201834863,-257.70642201834863,,
1760462380.690112,118,-0.6324395604395605,1.7032747252747251,154.7608351648352,242.3053435114504,-115.29770992366412,1.9465648854961832,-2661.743119266055,-177.70642201834863,-304.6788990825688,,
1760462380.7111998,119,-0.654,1.7535824175824175,152.83476923076924,230.5801526717557,-119.206106870229,1.9465648854961832,-2603.02752293578,-201.19266055045875,-281.1926605504587,,
1760462380.7218451,120,-0.5965054945054945,1.6026593406593408,158.33986813186814,228.6259541984733,-111.38931297709924,1.9465648854961832,-2544.3119266055046,-177.70642201834863,-257.70642201834863,,
1760462380.7428937,121,-0.5533846153846155,1.7535824175824175,156.50723076923077,222.763358778626,-121.16030534351144,1.9465648854961832,-2485.5963302752293,-201.19266055045875,-234.2201834862385,,
1760462380.7742178,122,1.1283296703296704,0.0,164.01745054945056,236.44274809160305,-113.34351145038168,1.9465648854961832,-2426.880733944954,-177.70642201834863,-187.24770642201835,,
1760462380.7848458,123,-0.5821318681318681,1.7032747252747251,151.03806593406594,248.1679389312977,-105.52671755725191,1.9465648854961832,-2368.1651376146788,-177.70642201834863,-281.1926605504587,,
1760462380.80593,124,-0.5318241758241758,1.5451648351648353,163.8593406593407,248.1679389312977,-113.34351145038168,1.9465648854961832,-2309.4495412844035,-154.22018348623854,-257.70642201834863,,
1760462380.837224,125,-0.5533846153846155,1.6385934065934065,156.60065934065935,236.44274809160305,-121.16030534351144,1.9465648854961832,-2192.0183486238534,-201.19266055045875,-257.70642201834863,,
1760462380.868512,126,-0.5893186813186814,1.7535824175824175,162.16325274725278,214.94656488549617,-123.1145038167939,1.9465648854961832,-2133.302752293578,-177.70642201834863,-234.2201834862385,,
1760462380.8789918,127,-0.6036923076923078,1.6385934065934065,160.24437362637363,232.53435114503816,-111.38931297709924,1.9465648854961832,-2074.587155963303,-201.19266055045875,-234.2201834862385,,
1760462380.8999364,128,-0.6108791208791209,1.6960879120879122,173.195010989011,236.44274809160305,-119.206106870229,1.9465648854961832,-2015.871559633028,-201.19266055045875,-234.2201834862385,,
1760462380.910547,129,-0.654,1.5595384615384615,158.43329670329672,244.25954198473283,-115.29770992366412,1.9465648854961832,-1957.1559633027523,-201.19266055045875,-234.2201834862385,,
1760462380.973133,130,-0.5533846153846155,1.7320219780219783,162.17043956043958,240.35114503816797,-107.48091603053436,1.9465648854961832,-1839.7247706422015,-130.73394495412845,-210.7339449541284,,
1760462380.9836917,131,-0.5461978021978022,1.566725274725275,163.85215384615387,224.7175572519084,-121.16030534351144,1.9465648854961832,-1781.0091743119265,-130.73394495412845,-234.2201834862385,,
1760462381.004596,132,-0.5533846153846155,1.6745274725274726,162.11294505494507,230.5801526717557,-121.16030534351144,1.9465648854961832,-1722.2935779816514,-201.19266055045875,-210.7339449541284,,
1760462381.015147,133,-0.6180659340659341,1.7607692307692309,145.48984615384617,232.53435114503816,-119.206106870229,1.9465648854961832,-1663.577981651376,-154.22018348623854,-281.1926605504587,,
1760462381.067251,134,-121.11936263736266,-12.081032967032968,-20.18775824175824,-89.83969465648855,0.0305343511450381,-0.6183206106870229,20.825688073394492,2069.816513761468,2771.192660550458,,
1760462381.0777686,135,-0.4671428571428571,-156.38505494505495,205.60035164835165,15.564885496183209,15.564885496183209,9.427480916030534,-1949.3577981651376,-446.3302752293578,775.045871559633,,
1760462381.1406364,136,-0.4312087912087912,79.11243956043957,205.65784615384615,15.572519083969466,15.557251908396946,9.427480916030534,-1597.0642201834862,-540.2752293577981,587.1559633027523,,
1760462381.151302,137,-0.4455824175824175,-156.38505494505495,205.6722197802198,15.572519083969466,15.564885496183209,9.412213740458014,-1714.4954128440368,-493.302752293578,610.6422018348624,,
1760462381.1724153,138,-0.4312087912087912,79.11243956043957,205.69378021978025,15.580152671755725,15.557251908396946,9.419847328244275,-2254.678899082569,-657.7064220183487,775.045871559633,,
1760462381.2660303,139,-0.4168351648351648,79.11243956043957,205.7656483516484,15.572519083969466,15.541984732824428,9.404580152671755,-1644.0366972477066,-469.8165137614679,775.045871559633,,
1760462381.276629,140,-0.424021978021978,-156.38505494505495,205.780021978022,15.580152671755725,15.534351145038167,9.404580152671755,-1831.9266055045875,-516.7889908256881,563.6697247706422,,
1760462381.287439,141,-0.4743296703296704,79.11243956043957,205.80158241758244,15.564885496183209,15.557251908396946,9.435114503816791,-1831.9266055045875,-0.091743119266055,610.6422018348624,,
1760462381.329273,142,-0.4671428571428571,79.11243956043957,205.83751648351648,15.572519083969466,15.541984732824428,9.412213740458014,-1996.330275229358,-305.41284403669727,704.5871559633028,,
1760462381.3607783,143,-0.424021978021978,-156.38505494505495,205.8518901098901,15.572519083969466,15.549618320610689,9.412213740458014,-1925.871559633028,-352.38532110091745,540.1834862385322,,
1760462381.371299,144,-0.459956043956044,79.11243956043957,205.87345054945052,15.572519083969466,15.572519083969466,9.427480916030534,-2207.706422018349,-281.92660550458714,681.1009174311927,,
1760462381.4244063,145,-0.459956043956044,-156.38505494505495,205.92375824175824,15.564885496183209,15.564885496183209,9.404580152671755,-1597.0642201834862,-493.302752293578,634.1284403669725,,
1760462381.511077,146,-0.4096483516483516,-156.38505494505495,205.9956263736264,15.557251908396946,15.541984732824428,9.427480916030534,-1620.5504587155965,-516.7889908256881,728.0733944954129,,
1760462381.5214314,147,-0.424021978021978,79.11243956043957,206.0171868131868,15.580152671755725,15.549618320610689,9.419847328244275,-1902.3853211009173,-70.55045871559633,681.1009174311927,,
1760462381.5449042,148,-0.4527692307692308,-156.38505494505495,206.03156043956045,15.564885496183209,15.564885496183209,9.412213740458014,-1831.9266055045875,-258.4403669724771,516.6972477064221,,
1760462381.5781715,149,-0.424021978021978,79.11243956043957,206.05312087912088,15.564885496183209,15.541984732824428,9.427480916030534,-2043.302752293578,-422.8440366972477,587.1559633027523,,
1760462381.59098,150,-0.4312087912087912,-156.38505494505495,206.0674945054945,15.572519083969466,15.572519083969466,9.427480916030534,-1784.9541284403672,-352.38532110091745,516.6972477064221,,
1760462381.6154573,151,-0.4168351648351648,79.11243956043957,206.08905494505493,15.564885496183209,15.534351145038167,9.419847328244275,-1761.467889908257,-446.3302752293578,563.6697247706422,,
1760462381.6258464,152,-0.4527692307692308,-156.38505494505495,206.1034285714286,15.572519083969466,15.541984732824428,9.412213740458014,-1456.1467889908258,-422.8440366972477,587.1559633027523,,
1760462381.710918,153,-0.4024615384615385,-0.5461978021978022,1.6673406593406594,168.23664122137404,242.3053435114504,-119.206106870229,23.39449541284404,450.1834862385321,-224.5871559633028,,
1760462381.823809,154,-0.7402417582417582,1.7535824175824175,156.615032967033,242.3053435114504,-115.29770992366412,1.9465648854961832,743.7614678899083,-154.12844036697248,-304.6788990825688,,
1760462381.834185,155,-0.4455824175824175,1.617032967032967,162.08419780219782,238.3969465648855,-119.206106870229,1.9465648854961832,802.4770642201835,-201.10091743119267,-234.2201834862385,,
1760462381.854937,156,-0.5677582417582419,1.7967032967032968,169.52254945054946,228.6259541984733,-119.206106870229,1.9465648854961832,861.1926605504588,-271.559633027523,-257.70642201834863,,
1760462381.8653996,157,-0.5965054945054945,1.6817142857142855,154.78958241758244,226.67175572519085,-123.1145038167939,1.9465648854961832,919.908256880734,-224.5871559633028,-257.70642201834863,,
1760462381.917025,158,-0.4958901098901099,1.80389010989011,151.03087912087912,214.94656488549617,-117.25190839694656,1.9465648854961832,1037.3394495412845,-201.10091743119267,-257.70642201834863,,
1760462382.020179,159,-0.5461978021978022,1.7823296703296705,158.3758021978022,244.25954198473283,-111.38931297709924,1.9465648854961832,1330.9174311926606,-154.12844036697248,-187.24770642201835,,
1760462382.0305605,160,1.2576923076923077,0.0071868131868131,154.7177142857143,232.53435114503816,-123.1145038167939,1.9465648854961832,1389.633027522936,-201.10091743119267,-234.2201834862385,,
1760462382.051178,161,-0.6252527472527473,1.7176483516483516,167.56054945054944,236.44274809160305,-113.34351145038168,1.9465648854961832,1448.3486238532112,-201.10091743119267,-257.70642201834863,,
1760462382.0823712,162,-0.574945054945055,1.688901098901099,169.43630769230768,242.3053435114504,-121.16030534351144,1.9465648854961832,1507.0642201834862,-177.61467889908258,-257.70642201834863,,
1760462382.0929332,163,-0.6899340659340659,1.631406593406593,163.88808791208794,242.3053435114504,-111.38931297709924,1.9465648854961832,1565.7798165137615,-201.10091743119267,-234.2201834862385,,
1760462382.1137152,164,-0.574945054945055,1.631406593406593,162.1273186813187,234.4885496183206,-119.206106870229,1.9465648854961832,1624.4954128440363,-154.12844036697248,-257.70642201834863,,
1760462382.1969297,165,-0.574945054945055,1.7607692307692309,164.01745054945056,230.5801526717557,-119.206106870229,1.9465648854961832,1859.3577981651372,-201.10091743119267,-234.2201834862385,,
1760462382.207531,166,-0.4383956043956044,1.6457802197802198,154.74646153846157,230.5801526717557,-125.06870229007632,1.9465648854961832,1918.073394495413,-201.10091743119267,-187.24770642201835,,
1760462382.2388065,167,-0.5605714285714286,1.6457802197802198,163.9312087912088,232.53435114503816,-115.29770992366412,1.9465648854961832,1976.788990825688,-224.5871559633028,-257.70642201834863,,
1760462382.249377,168,-0.6971208791208792,1.6673406593406594,154.63865934065936,222.763358778626,-123.1145038167939,1.9465648854961832,2035.5045871559632,-201.10091743119267,-304.6788990825688,,
1760462382.2701805,169,-0.5318241758241758,1.5954725274725277,158.47641758241758,246.21374045801528,-107.48091603053436,-0.0076335877862595,211.37614678899084,-39.72477064220183,11.743119266055048,,
1760462382.3116956,170,173.25250549450553,-13.913670329670332,-20.18775824175824,-93.74809160305344,0.0305343511450381,-0.7175572519083969,20.45871559633028,2023.302752293578,2794.678899082569,,
1760462382.3432348,171,-0.4743296703296704,-156.38505494505495,206.75024175824177,15.572519083969466,15.557251908396946,9.419847328244275,-1597.0642201834862,-657.7064220183487,469.72477064220186,,
1760462382.3537407,172,-0.424021978021978,79.11243956043957,206.7718021978022,15.564885496183209,15.549618320610689,9.435114503816791,-1878.8990825688077,-540.2752293577981,563.6697247706422,,
1760462382.4059775,173,-0.4527692307692308,-160.0647032967033,-18.405428571428573,46.90076335877863,-3.2290076335877864,0.9083969465648856,-5.412844036697248,-1996.330275229358,2640.183486238532,,
1760462382.4370468,174,-0.5965054945054945,1.6385934065934065,143.6140879120879,248.1679389312977,-105.52671755725191,1.9465648854961832,2563.9449541284403,-248.07339449541288,-257.70642201834863,,
1760462382.447477,175,-0.5605714285714286,1.7176483516483516,154.69615384615386,240.35114503816797,-113.34351145038168,1.9465648854961832,2622.6605504587155,-201.10091743119267,-234.2201834862385,,
1760462382.4683993,176,-0.6611868131868132,1.7320219780219783,163.92402197802198,236.44274809160305,-115.29770992366412,1.9465648854961832,2681.376146788991,-154.12844036697248,-234.2201834862385,,
1760462382.4788413,177,-0.4887032967032967,1.7176483516483516,158.46204395604397,220.8091603053435,-119.206106870229,1.9465648854961832,2740.091743119266,-177.61467889908258,-234.2201834862385,,
1760462382.4997778,178,-0.6252527472527473,1.7535824175824175,163.89527472527473,242.3053435114504,-115.29770992366412,1.9465648854961832,2798.8073394495414,-201.10091743119267,-304.6788990825688,,
1760462382.5929887,179,-0.574945054945055,1.7967032967032968,154.7608351648352,244.25954198473283,-123.1145038167939,1.9465648854961832,-2978.8073394495414,-177.61467889908258,-257.70642201834863,,
1760462382.6034255,180,-0.4743296703296704,1.617032967032967,162.0698241758242,226.67175572519085,-123.1145038167939,1.9465648854961832,-2920.091743119266,-248.07339449541288,-234.2201834862385,,
1760462382.6244376,181,-0.5821318681318681,1.6673406593406594,158.3686153846154,236.44274809160305,-113.34351145038168,1.9465648854961832,-2861.376146788991,-177.61467889908258,-257.70642201834863,,
1760462382.634992,182,-0.5030769230769231,1.7535824175824175,160.32342857142856,234.4885496183206,-115.29770992366412,1.9465648854961832,-2802.6605504587155,-201.10091743119267,-281.1926605504587,,
1760462382.687093,183,-0.6611868131868132,1.724835164835165,165.75665934065935,240.35114503816797,-109.4351145038168,1.9465648854961832,-2685.229357798165,-177.61467889908258,-281.1926605504587,,
1760462382.6975367,184,-0.6252527472527473,1.7320219780219783,162.11294505494507,224.7175572519084,-121.16030534351144,1.9465648854961832,-2626.5137614678897,-177.61467889908258,-210.7339449541284,,
1760462382.7185435,185,-0.6971208791208792,1.7104615384615385,158.40454945054947,236.44274809160305,-117.25190839694656,1.9465648854961832,-2567.798165137615,-177.61467889908258,-257.70642201834863,,
1760462382.7499611,186,-0.6180659340659341,1.7607692307692309,163.99589010989013,238.3969465648855,-111.38931297709924,1.9465648854961832,-2450.3669724770643,-154.12844036697248,-281.1926605504587,,
1760462382.7812428,187,-0.4958901098901099,1.6385934065934065,143.67876923076923,-248.19847328244276,-115.29770992366412,1.9465648854961832,-2391.651376146789,-177.61467889908258,-304.6788990825688,,
1760462382.7918167,188,-0.4527692307692308,1.4804835164835164,152.89226373626374,232.53435114503816,-115.29770992366412,1.9465648854961832,-2332.935779816514,-154.12844036697248,-210.7339449541284,,
1760462382.8128588,189,-0.5461978021978022,1.6960879120879122,163.95276923076926,232.53435114503816,-111.38931297709924,1.9465648854961832,-2274.2201834862385,-177.61467889908258,-210.7339449541284,,
1760462382.8234491,190,-0.6180659340659341,1.7104615384615385,158.4404835164835,234.4885496183206,-125.06870229007632,1.9465648854961832,-2215.5045871559632,-177.61467889908258,-257.70642201834863,,
1760462382.8547225,191,-0.5677582417582419,1.6745274725274726,147.37997802197802,236.44274809160305,-121.16030534351144,1.9465648854961832,-2156.788990825688,-177.61467889908258,-257.70642201834863,,
1760462382.9478629,192,-0.5533846153846155,1.7967032967032968,162.1201318681319,242.3053435114504,-121.16030534351144,1.9465648854961832,-1863.211009174312,-177.61467889908258,-257.70642201834863,,
1760462382.978793,193,-0.5533846153846155,1.6601538461538463,171.28331868131866,250.12213740458012,-111.38931297709924,1.9465648854961832,-1804.4954128440368,-201.10091743119267,-234.2201834862385,,
1760462382.9891434,194,-0.5821318681318681,1.724835164835165,165.82134065934068,232.53435114503816,-121.16030534351144,1.9465648854961832,-1745.7798165137615,-201.10091743119267,-257.70642201834863,,
1760462383.0098696,195,-0.6108791208791209,1.724835164835165,154.6027252747253,250.12213740458012,-109.4351145038168,1.9465648854961832,-1687.0642201834862,-177.61467889908258,-187.24770642201835,,
1760462383.0407493,196,-0.654,1.6960879120879122,141.8605054945055,246.21374045801528,-117.25190839694656,1.9465648854961832,-1628.348623853211,-177.61467889908258,-281.1926605504587,,
1760462383.0511086,197,-0.5677582417582419,1.80389010989011,158.28237362637364,226.67175572519085,-115.29770992366412,1.9465648854961832,-1569.6330275229357,-201.10091743119267,-210.7339449541284,,
1760462383.0722437,198,-0.5030769230769231,1.7176483516483516,154.61709890109893,238.3969465648855,-115.29770992366412,1.9465648854961832,-1510.9174311926604,-224.5871559633028,-234.2201834862385,,
1760462383.103778,199,-0.5821318681318681,1.6457802197802198,147.35123076923077,244.25954198473283,-105.52671755725191,1.9465648854961832,-1452.201834862385,-154.12844036697248,-257.70642201834863,,
1760462383.1143196,200,-0.539010989010989,1.6817142857142855,156.55035164835166,-244.29007633587787,-105.52671755725191,1.9465648854961832,-1393.48623853211,-107.1559633027523,-234.2201834862385,,
1760462383.1352975,201,-0.5965054945054945,1.537978021978022,160.18687912087913,242.3053435114504,-123.1145038167939,1.9465648854961832,-1334.7706422018348,-177.61467889908258,-257.70642201834863,,
1760462383.1459324,202,-0.7186813186813188,1.609846153846154,164.00307692307695,240.35114503816797,-109.4351145038168,1.9465648854961832,-1276.0550458715595,-201.10091743119267,-257.70642201834863,,
1760462383.1669006,203,-0.5318241758241758,1.8326373626373629,178.67136263736265,226.67175572519085,-127.02290076335878,1.9465648854961832,-1217.3394495412842,-224.5871559633028,-257.70642201834863,,
1760462383.2909513,204,-0.5533846153846155,1.688901098901099,149.226989010989,244.25954198473283,-109.4351145038168,1.9465648854961832,-865.0458715596332,-177.61467889908258,-257.70642201834863,,
1760462383.3014357,205,-0.6611868131868132,-0.1365494505494505,169.24226373626374,236.44274809160305,-119.206106870229,1.9465648854961832,-806.3302752293579,-130.6422018348624,-257.70642201834863,,
1760462383.322161,206,-0.6036923076923078,1.617032967032967,151.0093186813187,230.5801526717557,-128.9770992366412,1.9465648854961832,-747.6146788990826,-154.12844036697248,-234.2201834862385,,
1760462383.3535454,207,-0.6755604395604397,1.7895164835164834,138.18085714285715,242.3053435114504,-117.25190839694656,1.9465648854961832,-688.8990825688073,-248.07339449541288,-257.70642201834863,,
1760462383.3640616,208,-0.5102637362637363,1.5595384615384615,156.54316483516484,230.5801526717557,-115.29770992366412,1.9465648854961832,-630.183486238532,-177.61467889908258,-234.2201834862385,,
1760462383.384931,209,-0.5318241758241758,1.688901098901099,163.90246153846155,234.4885496183206,-119.206106870229,1.9465648854961832,-571.4678899082569,-201.10091743119267,-234.2201834862385,,
1760462383.405914,210,-0.6252527472527473,1.7607692307692309,176.76685714285716,228.6259541984733,-123.1145038167939,1.9465648854961832,-512.7522935779816,-224.5871559633028,-210.7339449541284,,
1760462383.4681065,211,-0.574945054945055,1.6960879120879122,154.8183296703297,240.35114503816797,-105.52671755725191,1.9465648854961832,-336.605504587156,-177.61467889908258,-257.70642201834863,,
1760462383.4993255,212,-0.6036923076923078,1.6601538461538463,156.67971428571428,246.21374045801528,-117.25190839694656,1.9465648854961832,-219.1743119266055,-177.61467889908258,-257.70642201834863,,
1760462383.509776,213,-0.5893186813186814,1.7535824175824175,165.6847912087912,226.67175572519085,-123.1145038167939,1.9465648854961832,-160.45871559633028,-201.10091743119267,-234.2201834862385,,
1760462383.5722537,214,-0.6468131868131869,1.566725274725275,169.47942857142857,232.53435114503816,-113.34351145038168,1.9465648854961832,-43.02752293577981,-177.61467889908258,-187.24770642201835,,
1760462383.5829115,215,-0.7114945054945055,1.6457802197802198,163.95276923076926,244.25954198473283,-119.206106870229,1.9465648854961832,15.688073394495412,-177.5229357798165,-187.24770642201835,,
1760462383.6038373,216,-0.6683736263736263,1.7032747252747251,158.41173626373626,248.1679389312977,-128.9770992366412,1.9465648854961832,74.40366972477064,-177.5229357798165,-304.6788990825688,,
1760462383.6143315,217,-0.5102637362637363,1.6817142857142855,154.61709890109893,234.4885496183206,-113.34351145038168,1.9465648854961832,133.11926605504587,-201.0091743119266,-304.6788990825688,,
1760462383.6352851,218,-0.459956043956044,1.7823296703296705,160.11501098901098,236.44274809160305,-121.16030534351144,1.9465648854961832,191.83486238532112,-154.0366972477064,-257.70642201834863,,
1760462383.7597473,219,-0.539010989010989,1.7535824175824175,158.41892307692308,240.35114503816797,-121.16030534351144,1.9465648854961832,602.8440366972477,-154.0366972477064,-281.1926605504587,,
1760462383.7910285,220,-0.5174505494505495,1.7463956043956046,163.8737142857143,234.4885496183206,-115.29770992366412,1.9465648854961832,661.559633027523,-201.0091743119266,-257.70642201834863,,
1760462383.8224895,221,-0.6036923076923078,1.7032747252747251,162.05545054945057,226.67175572519085,-109.4351145038168,1.9465648854961832,720.2752293577981,-201.0091743119266,-234.2201834862385,,
1760462383.8329732,222,-0.5030769230769231,1.724835164835165,138.21679120879122,244.25954198473283,-119.206106870229,1.9465648854961832,778.9908256880734,-224.4954128440367,-210.7339449541284,,
1760462383.8538306,223,-0.6971208791208792,1.617032967032967,171.37674725274724,238.3969465648855,-109.4351145038168,1.9465648854961832,837.7064220183487,-154.0366972477064,-187.24770642201835,,
1760462383.8642569,224,-0.4958901098901099,1.5810989010989014,158.40454945054947,234.4885496183206,-121.16030534351144,1.9465648854961832,896.4220183486239,-201.0091743119266,-257.70642201834863,,
1760462383.885199,225,-0.539010989010989,1.631406593406593,158.41892307692308,234.4885496183206,-117.25190839694656,1.9465648854961832,955.1376146788992,-177.5229357798165,-257.70642201834863,,
1760462383.9164257,226,-0.6252527472527473,1.7607692307692309,154.7752087912088,224.7175572519084,-123.1145038167939,1.9465648854961832,1013.8532110091744,-201.0091743119266,-281.1926605504587,,
1760462383.9275804,227,-0.5965054945054945,1.7535824175824175,154.75364835164837,222.763358778626,-119.206106870229,1.9465648854961832,1072.5688073394497,-154.0366972477064,-257.70642201834863,,
1760462384.1644058,228,-0.6108791208791209,1.7320219780219783,160.2371868131868,244.25954198473283,-127.02290076335878,1.9465648854961832,1777.1559633027523,-177.5229357798165,-304.6788990825688,,
1760462384.1747963,229,-0.4887032967032967,1.6817142857142855,145.47547252747253,248.1679389312977,-109.4351145038168,1.9465648854961832,1835.8715596330276,-201.0091743119266,-281.1926605504587,,
1760462384.1955333,230,-0.4743296703296704,1.7463956043956046,162.15606593406596,240.35114503816797,-119.206106870229,1.9465648854961832,1894.5871559633024,-177.5229357798165,-234.2201834862385,,
1760462384.2267604,231,-0.5605714285714286,1.7176483516483516,158.40454945054947,236.44274809160305,-117.25190839694656,1.9465648854961832,1953.302752293578,-154.0366972477064,-257.70642201834863,,
1760462384.239022,232,-0.5174505494505495,1.631406593406593,160.36654945054946,218.85496183206104,-119.206106870229,1.9465648854961832,2012.0183486238527,-201.0091743119266,-257.70642201834863,,
1760462384.259952,233,-0.5461978021978022,1.7607692307692309,169.37162637362638,230.5801526717557,-125.06870229007632,1.9465648854961832,2070.733944954128,-201.0091743119266,-257.70642201834863,,
1760462384.3324125,234,-0.4958901098901099,1.688901098901099,162.14169230769232,232.53435114503816,-121.16030534351144,1.9465648854961832,2246.880733944954,-224.4954128440367,-281.1926605504587,,
1760462384.3428695,235,-0.5246373626373626,1.7607692307692309,152.8635164835165,228.6259541984733,-123.1145038167939,1.9465648854961832,2305.5963302752293,-201.0091743119266,-257.70642201834863,,
1760462384.363583,236,-0.5246373626373626,1.7104615384615385,154.75364835164837,242.3053435114504,-119.206106870229,1.9465648854961832,2364.3119266055046,-177.5229357798165,-257.70642201834863,,
1760462384.3740196,237,-0.6036923076923078,1.6529670329670332,154.64584615384618,218.85496183206104,-119.206106870229,1.9465648854961832,2423.02752293578,-201.0091743119266,-234.2201834862385,,
1760462384.3946934,238,-0.5821318681318681,1.7104615384615385,165.77103296703297,236.44274809160305,-121.16030534351144,1.9465648854961832,2481.743119266055,-177.5229357798165,-257.70642201834863,,
1760462384.4788344,239,-0.574945054945055,1.609846153846154,154.74646153846157,244.25954198473283,-117.25190839694656,1.9465648854961832,2716.605504587156,-224.4954128440367,-257.70642201834863,,
1760462384.5203786,240,-0.6108791208791209,1.5954725274725277,169.3356923076923,1.938931297709924,235.8091603053435,-16.72519083969466,-281.1926605504587,-1056.2385321100917,0.3669724770642202,,
1760462384.5307531,241,147.37997802197802,222.60435164835167,-106.7098021978022,1.9465648854961832,240.6946564885496,-14.770992366412214,-234.2201834862385,-1103.2110091743118,0.3669724770642202,,
1760462384.5515325,242,165.75665934065935,229.96364835164837,-112.22927472527472,1.9465648854961832,245.5801526717557,-16.72519083969466,-234.2201834862385,-1079.7247706422015,0.3669724770642202,,
1760462384.5828123,243,152.94975824175825,220.7645274725275,-110.38945054945056,1.9465648854961832,-249.8091603053435,-16.72519083969466,-257.70642201834863,-1079.7247706422015,0.3669724770642202,,
1760462384.5931854,244,167.67553846153848,217.08487912087912,-108.54962637362638,1.9465648854961832,-244.9236641221374,-14.770992366412214,-304.6788990825688,-1079.7247706422015,0.3669724770642202,,
1760462384.6138628,245,160.24437362637363,198.68663736263736,-106.7098021978022,1.9465648854961832,-240.0381679389313,-16.72519083969466,-187.24770642201835,-1103.2110091743118,0.3669724770642202,,
1760462384.6345882,246,165.71353846153846,220.7645274725275,-101.19032967032967,1.9465648854961832,-235.1526717557252,-14.770992366412214,-257.70642201834863,-1126.697247706422,0.3669724770642202,,
1760462384.6449058,247,151.1171208791209,222.60435164835167,-108.54962637362638,1.9465648854961832,-230.26717557251908,-16.72519083969466,-257.70642201834863,-1079.7247706422015,0.3669724770642202,,
1760462384.6663024,248,158.3686153846154,235.4831208791209,-104.869978021978,1.9465648854961832,-225.38167938931295,-14.770992366412214,-257.70642201834863,-1079.7247706422015,0.3669724770642202,,
1760462384.6974337,249,156.57909890109892,231.80347252747256,-121.42839560439562,1.9465648854961832,-220.49618320610688,-16.72519083969466,-257.70642201834863,-1032.7522935779816,0.3669724770642202,,
1760462384.738993,250,163.93839560439562,220.7645274725275,-108.54962637362638,1.9465648854961832,-210.72519083969465,-14.770992366412214,-234.2201834862385,-1126.697247706422,0.3669724770642202,,
1760462384.770075,251,154.79676923076926,228.12382417582415,-104.869978021978,1.9465648854961832,-205.83969465648852,-12.816793893129772,-281.1926605504587,-1103.2110091743118,0.3669724770642202,,
1760462384.7804766,252,169.45068131868132,224.44417582417583,-114.0690989010989,1.9465648854961832,-200.95419847328245,-14.770992366412214,-281.1926605504587,-1056.2385321100917,0.3669724770642202,,
1760462384.8734453,253,156.5719120879121,231.80347252747256,-103.03015384615384,1.9465648854961832,-176.5267175572519,-14.770992366412214,-257.70642201834863,-1079.7247706422015,0.3669724770642202,,
1760462384.883818,254,160.24437362637363,220.7645274725275,-103.03015384615384,1.9465648854961832,-171.6412213740458,-14.770992366412214,-281.1926605504587,-985.7798165137616,0.3669724770642202,,
1760462384.904481,255,163.88090109890112,226.284,-112.22927472527472,1.9465648854961832,-166.75572519083968,-14.770992366412214,-234.2201834862385,-1079.7247706422015,0.3669724770642202,,
1760462384.914832,256,156.70127472527474,231.80347252747256,-110.38945054945056,1.9465648854961832,-161.87022900763358,-14.770992366412214,-257.70642201834863,-1079.7247706422015,0.3669724770642202,,
1760462384.9358025,257,158.41892307692308,228.12382417582415,-104.869978021978,1.9465648854961832,-156.98473282442748,-14.770992366412214,-281.1926605504587,-1150.1834862385322,0.3669724770642202,,
1760462384.9668252,258,160.23,202.3662857142857,-103.03015384615384,1.9465648854961832,-152.09923664122138,-16.72519083969466,-257.70642201834863,-1103.2110091743118,0.3669724770642202,,
1760462384.9772673,259,149.1623076923077,224.44417582417583,-106.7098021978022,1.9465648854961832,-147.21374045801528,-14.770992366412214,-210.7339449541284,-1126.697247706422,0.3669724770642202,,
1760462384.9978244,260,163.90246153846155,229.96364835164837,-115.90892307692307,1.9465648854961832,-142.32824427480915,-16.72519083969466,-234.2201834862385,-1103.2110091743118,0.3669724770642202,,
1760462385.02873,261,154.7249010989011,229.96364835164837,-108.54962637362638,1.9465648854961832,-137.44274809160305,-18.6793893129771,-187.24770642201835,-1056.2385321100917,0.3669724770642202,,
1760462385.0391178,262,152.89226373626374,215.24505494505496,-106.7098021978022,1.9465648854961832,-132.55725190839695,-12.816793893129772,-281.1926605504587,-1079.7247706422015,0.3669724770642202,,
1760462385.0604017,263,167.66835164835166,207.88575824175825,-104.869978021978,1.9465648854961832,-127.67175572519083,-16.72519083969466,-257.70642201834863,-1126.697247706422,0.3669724770642202,,
1760462385.0913289,264,147.37997802197802,209.7255824175824,-117.74874725274726,1.9465648854961832,-122.78625954198472,-16.72519083969466,-234.2201834862385,-1032.7522935779816,0.3669724770642202,,
1760462385.1018834,265,171.33362637362637,226.284,-104.869978021978,1.9465648854961832,-117.90076335877863,-14.770992366412214,-304.6788990825688,-1150.1834862385322,0.3669724770642202,,
1760462385.1230688,266,160.18687912087913,209.7255824175824,-103.03015384615384,1.9465648854961832,-113.01526717557252,-16.72519083969466,-281.1926605504587,-1056.2385321100917,0.3669724770642202,,
1760462385.133608,267,167.59648351648352,-229.9923956043956,-112.22927472527472,1.9465648854961832,-108.12977099236642,-16.72519083969466,-234.2201834862385,-1126.697247706422,0.3669724770642202,,
1760462385.154377,268,154.85426373626376,218.92470329670329,-123.26821978021978,1.9465648854961832,-103.2442748091603,-16.72519083969466,-257.70642201834863,-1079.7247706422015,0.3669724770642202,,
1760462385.1855257,269,162.11294505494507,220.7645274725275,-110.38945054945056,1.9465648854961832,-98.3587786259542,-14.770992366412214,-281.1926605504587,-1126.697247706422,0.3669724770642202,,
1760462385.196008,270,151.09556043956044,222.60435164835167,-99.3505054945055,1.9465648854961832,-93.47328244274809,-14.770992366412214,-281.1926605504587,-1103.2110091743118,0.3669724770642202,,
1760462385.216848,271,162.10575824175828,222.60435164835167,-114.0690989010989,1.9465648854961832,-88.58778625954199,-16.72519083969466,-234.2201834862385,-1103.2110091743118,0.3669724770642202,,
1760462385.2531242,272,143.73626373626374,-231.83221978021984,-103.03015384615384,1.9465648854961832,-78.81679389312977,-16.72519083969466,-257.70642201834863,-1056.2385321100917,0.3669724770642202,,
1760462385.316621,273,167.5821098901099,224.44417582417583,-108.54962637362638,1.9465648854961832,-64.16030534351145,-16.72519083969466,-234.2201834862385,-1103.2110091743118,0.3669724770642202,,
1760462385.3504748,274,156.55753846153848,231.80347252747256,-114.0690989010989,1.9465648854961832,-59.27480916030535,-16.72519083969466,-304.6788990825688,-1079.7247706422015,0.3669724770642202,,
1760462385.3608506,275,174.98452747252747,229.96364835164837,-106.7098021978022,1.9465648854961832,-54.38931297709924,-14.770992366412214,-234.2201834862385,-1079.7247706422015,0.3669724770642202,,
1760462385.406836,276,167.54617582417583,226.284,-103.03015384615384,-89.90076335877863,0.0305343511450381,-0.6335877862595419,22.110091743119263,2139.633027522936,2888.623853211009,,
1760462385.4171748,277,-0.4383956043956044,-156.38505494505495,209.58903296703295,15.580152671755725,15.549618320610689,9.435114503816791,-1644.0366972477066,-446.3302752293578,775.045871559633,,
1760462385.440879,278,-0.4312087912087912,79.11243956043957,209.6105934065934,15.572519083969466,15.549618320610689,9.435114503816791,-1925.871559633028,-728.1651376146789,610.6422018348624,,
1760462385.4749496,279,-0.4527692307692308,-156.38505494505495,209.62496703296705,15.564885496183209,15.564885496183209,9.412213740458014,-1972.844036697248,-281.92660550458714,657.6146788990826,,
1760462385.485785,280,-0.4312087912087912,79.11243956043957,209.64652747252748,15.572519083969466,15.557251908396946,9.442748091603054,-1996.330275229358,-540.2752293577981,281.8348623853211,,
1760462385.5068712,281,-0.459956043956044,-156.38505494505495,209.6609010989011,15.572519083969466,15.557251908396946,9.419847328244275,-2066.7889908256884,-164.4954128440367,493.2110091743119,,
1760462385.5179746,282,-0.4527692307692308,79.11243956043957,209.68246153846152,15.564885496183209,15.557251908396946,9.404580152671755,-1761.467889908257,-422.8440366972477,422.7522935779817,,
1760462385.5399818,283,-0.4671428571428571,-156.38505494505495,209.6968351648352,15.572519083969466,15.534351145038167,9.412213740458014,-1691.0091743119267,-375.8715596330275,540.1834862385322,,
1760462385.5503757,284,-0.424021978021978,79.11243956043957,209.7183956043956,15.572519083969466,15.557251908396946,9.419847328244275,-1902.3853211009173,-516.7889908256881,704.5871559633028,,
1760462385.5711386,285,-0.4312087912087912,-156.38505494505495,209.73276923076924,15.564885496183209,15.541984732824428,9.412213740458014,-2254.678899082569,-141.0091743119266,915.9633027522935,,
1760462385.591825,286,-0.4527692307692308,79.11243956043957,209.75432967032967,15.580152671755725,15.564885496183209,9.427480916030534,-1855.4128440366972,-563.7614678899083,845.5045871559633,,
1760462385.6022882,287,-0.424021978021978,-156.38505494505495,209.7687032967033,15.564885496183209,15.572519083969466,9.419847328244275,-1667.5229357798166,-422.8440366972477,446.2385321100918,,
1760462385.6230056,288,-0.4168351648351648,79.11243956043957,209.7902637362637,15.564885496183209,15.549618320610689,9.435114503816791,-1691.0091743119267,-422.8440366972477,681.1009174311927,,
1760462385.653828,289,-0.424021978021978,-156.38505494505495,209.80463736263732,15.572519083969466,15.549618320610689,9.412213740458014,-1597.0642201834862,-563.7614678899083,422.7522935779817,,
1760462385.664183,290,-0.3952747252747253,79.11243956043957,209.8261978021978,15.564885496183209,15.541984732824428,9.419847328244275,-2090.2752293577983,-399.3577981651376,563.6697247706422,,
1760462385.6850002,291,-156.38505494505495,209.84057142857145,14.653912087912088,15.564885496183209,9.412213740458014,-160.24427480916032,-493.302752293578,352.2935779816514,-39.08256880733945,,
1760462385.7472272,292,-0.4168351648351648,79.11243956043957,209.89806593406595,15.564885496183209,15.549618320610689,9.435114503816791,-2113.7614678899085,-657.7064220183487,563.6697247706422,,
1760462385.7575805,293,-0.4455824175824175,-156.38505494505495,209.9124395604396,15.572519083969466,15.541984732824428,9.427480916030534,-1878.8990825688077,-328.89908256880733,563.6697247706422,,
1760462385.8094783,294,-0.4312087912087912,-156.38505494505495,209.9483736263736,15.572519083969466,15.557251908396946,9.412213740458014,-1620.5504587155965,-493.302752293578,540.1834862385322,,
1760462385.8205693,295,-0.4312087912087912,79.11243956043957,209.96993406593407,15.564885496183209,15.557251908396946,9.427480916030534,-2113.7614678899085,-422.8440366972477,728.0733944954129,,
1760462385.851765,296,-0.4312087912087912,79.11243956043957,210.0058681318681,15.580152671755725,15.564885496183209,9.427480916030534,-1925.871559633028,-469.8165137614679,422.7522935779817,,
1760462385.9453936,297,-0.4168351648351648,79.11243956043957,210.07773626373623,15.572519083969466,15.549618320610689,9.419847328244275,-2043.302752293578,-328.89908256880733,657.6146788990826,,
1760462385.9765232,298,-0.4312087912087912,-156.38505494505495,210.0921098901099,15.572519083969466,15.557251908396946,9.419847328244275,-1925.871559633028,-681.1926605504588,751.559633027523,,
1760462385.987079,299,-0.4455824175824175,79.11243956043957,210.11367032967036,15.564885496183209,15.549618320610689,9.412213740458014,-1784.9541284403672,-211.4678899082569,446.2385321100918,,
1760462386.0699744,300,-0.4312087912087912,79.11243956043957,210.1496043956044,15.564885496183209,15.549618320610689,84.03053435114504,2683.119266055046,187.1559633027523,186.88073394495413,,
1760462386.080454,301,-0.4887032967032967,1.6960879120879122,162.0123296703297,236.44274809160305,-111.38931297709924,1.9465648854961832,1518.8073394495414,-200.91743119266056,-257.70642201834863,,
1760462386.1016617,302,-0.5965054945054945,1.7751428571428571,147.4159120879121,234.4885496183206,-113.34351145038168,1.9465648854961832,1577.5229357798166,-200.91743119266056,-234.2201834862385,,
1760462386.1121016,303,-0.5893186813186814,1.7320219780219783,167.50305494505494,230.5801526717557,-123.1145038167939,1.9465648854961832,1636.2385321100917,-177.4311926605505,-187.24770642201835,,
1760462386.1331172,304,-0.6180659340659341,1.7032747252747251,160.2803076923077,234.4885496183206,-109.4351145038168,1.9465648854961832,1694.954128440367,-200.91743119266056,-234.2201834862385,,
1760462386.2058392,305,-0.6252527472527473,1.617032967032967,164.00307692307695,242.3053435114504,-123.1145038167939,1.9465648854961832,1929.816513761468,-153.94495412844037,-210.7339449541284,,
1760462386.2576284,306,-0.6468131868131869,1.6457802197802198,163.95276923076926,228.6259541984733,-128.9770992366412,1.9465648854961832,2047.2477064220184,-153.94495412844037,-234.2201834862385,,
1760462386.289036,307,-0.6827472527472528,1.5595384615384615,158.45485714285715,244.25954198473283,-115.29770992366412,1.9465648854961832,2164.678899082569,-200.91743119266056,-281.1926605504587,,
1760462386.3203137,308,-0.654,1.688901098901099,162.08419780219782,238.3969465648855,-111.38931297709924,1.9465648854961832,2282.110091743119,-130.45871559633028,-234.2201834862385,,
1760462386.3516958,309,-0.6755604395604397,1.7176483516483516,162.04826373626375,236.44274809160305,-128.9770992366412,1.9465648854961832,2340.8256880733943,-177.4311926605505,-257.70642201834863,,
1760462386.3621836,310,-0.5677582417582419,1.7463956043956046,154.68178021978022,226.67175572519085,-117.25190839694656,1.9465648854961832,2399.5412844036696,-200.91743119266056,-210.7339449541284,,
1760462386.3935003,311,-0.5605714285714286,1.7967032967032968,156.50004395604395,236.44274809160305,-109.4351145038168,1.9465648854961832,2458.256880733945,-177.4311926605505,-281.1926605504587,,
1760462386.414537,312,-0.6396263736263736,1.7823296703296705,156.5719120879121,250.12213740458012,-117.25190839694656,1.9465648854961832,2516.97247706422,-177.4311926605505,-257.70642201834863,,
1760462386.4250698,313,-0.6611868131868132,1.631406593406593,154.7608351648352,232.53435114503816,-130.93129770992363,1.9465648854961832,2575.6880733944954,-153.94495412844037,-281.1926605504587,,
1760462386.4459844,314,-0.4815164835164835,1.7392087912087917,162.0123296703297,228.6259541984733,-109.4351145038168,1.9465648854961832,2634.4036697247707,-177.4311926605505,-281.1926605504587,,
1760462386.4565012,315,-0.6611868131868132,1.6026593406593408,158.44767032967033,216.90076335877865,-111.38931297709924,1.9465648854961832,2693.119266055046,-200.91743119266056,-281.1926605504587,,
1760462386.5498405,316,-0.5893186813186814,1.7176483516483516,163.94558241758244,244.25954198473283,-125.06870229007632,-0.0076335877862595,22.752293577981654,1998.348623853211,2841.651376146789,,
1760462386.5603576,317,-0.4168351648351648,-156.38505494505495,210.63112087912089,15.580152671755725,15.564885496183209,9.435114503816791,-2019.816513761468,-540.2752293577981,775.045871559633,,
1760462386.6434278,318,-0.4671428571428571,79.11243956043957,210.72454945054943,15.572519083969466,15.541984732824428,9.412213740458014,-1972.844036697248,-399.3577981651376,587.1559633027523,,
1760462386.6750152,319,-0.4455824175824175,-156.38505494505495,210.73892307692307,15.564885496183209,15.549618320610689,9.412213740458014,-1925.871559633028,-399.3577981651376,446.2385321100918,,
1760462386.6855917,320,-0.424021978021978,79.11243956043957,210.7604835164835,15.564885496183209,15.564885496183209,9.404580152671755,-2066.7889908256884,-258.4403669724771,469.72477064220186,,
1760462386.706467,321,-0.4168351648351648,-156.38505494505495,210.77485714285717,15.564885496183209,15.557251908396946,9.419847328244275,-1925.871559633028,-704.6788990825688,728.0733944954129,,
1760462386.7169776,322,-0.4096483516483516,79.11243956043957,210.7964175824176,15.580152671755725,15.549618320610689,9.435114503816791,-2043.302752293578,-540.2752293577981,446.2385321100918,,
1760462386.7377894,323,-0.3880879120879121,-156.38505494505495,210.8107912087912,15.572519083969466,15.549618320610689,9.412213740458014,-2513.02752293578,-352.38532110091745,657.6146788990826,,
1760462386.799944,324,-0.4383956043956044,79.11243956043957,210.8682857142857,15.580152671755725,15.549618320610689,9.427480916030534,-1902.3853211009173,-375.8715596330275,845.5045871559633,,
1760462386.8311565,325,-0.4168351648351648,-156.38505494505495,210.88265934065933,15.572519083969466,15.564885496183209,9.412213740458014,-2207.706422018349,-916.0550458715596,822.0183486238533,,
1760462386.8415945,326,-0.4383956043956044,79.11243956043957,210.90421978021976,15.572519083969466,15.564885496183209,9.419847328244275,-1550.091743119266,-375.8715596330275,375.7798165137615,,
1760462386.883233,327,-0.4455824175824175,79.11243956043957,210.94015384615383,15.564885496183209,15.549618320610689,9.419847328244275,-2090.2752293577983,-258.4403669724771,493.2110091743119,,
1760462386.893765,328,-0.424021978021978,-156.38505494505495,210.9545274725275,15.572519083969466,15.549618320610689,9.412213740458014,-2019.816513761468,-516.7889908256881,751.559633027523,,
1760462386.9251668,329,-0.4383956043956044,79.11243956043957,210.97608791208796,15.572519083969466,15.549618320610689,9.435114503816791,-1667.5229357798166,-446.3302752293578,516.6972477064221,,
1760462386.93566,330,-0.4383956043956044,-156.38505494505495,210.9904615384616,15.572519083969466,15.564885496183209,9.419847328244275,-2090.2752293577983,-681.1926605504588,587.1559633027523,,
1760462386.9460938,331,-0.459956043956044,79.11243956043957,211.012021978022,15.564885496183209,15.557251908396946,9.404580152671755,-1831.9266055045875,-352.38532110091745,634.1284403669725,,
1760462386.977208,332,-0.4312087912087912,79.11243956043957,211.04795604395608,15.572519083969466,15.564885496183209,9.412213740458014,-1784.9541284403672,-117.52293577981652,798.5321100917431,,
1760462387.0083714,333,-0.4527692307692308,-156.38505494505495,211.0623296703297,15.557251908396946,15.549618320610689,9.412213740458014,-1925.871559633028,-610.7339449541284,516.6972477064221,,
1760462387.039447,334,-0.4455824175824175,79.11243956043957,211.08389010989012,15.580152671755725,15.557251908396946,9.442748091603054,-1902.3853211009173,-516.7889908256881,681.1009174311927,,
1760462387.0498831,335,-0.3952747252747253,-156.38505494505495,211.09826373626376,15.557251908396946,15.564885496183209,9.412213740458014,-1714.4954128440368,-211.4678899082569,1056.8807339449545,,
1760462387.070689,336,-0.459956043956044,79.11243956043957,211.1198241758242,15.564885496183209,15.541984732824428,9.427480916030534,-1972.844036697248,-234.954128440367,540.1834862385322,,
1760462387.1122408,337,-0.424021978021978,79.11243956043957,211.15575824175824,15.572519083969466,15.557251908396946,9.419847328244275,-1503.119266055046,-493.302752293578,422.7522935779817,,
1760462387.1435328,338,-0.459956043956044,-156.38505494505495,211.1701318681319,15.580152671755725,15.564885496183209,9.404580152671755,-1855.4128440366972,-187.9816513761468,563.6697247706422,,
1760462387.237392,339,-0.4096483516483516,79.11243956043957,211.19169230769236,15.572519083969466,15.557251908396946,9.427480916030534,-1972.844036697248,1009.908256880734,2696.880733944954,,
1760462387.2480242,340,-0.5821318681318681,1.8254505494505493,147.4734065934066,242.3053435114504,-105.52671755725191,1.9465648854961832,-970.7339449541286,-200.91743119266056,-257.70642201834863,,
1760462387.3003178,341,-0.5533846153846155,1.6601538461538463,156.59347252747253,242.3053435114504,-119.206106870229,1.9465648854961832,-853.302752293578,-153.94495412844037,-304.6788990825688,,
1760462387.3108337,342,1.2720659340659342,0.0287472527472527,163.90964835164837,224.7175572519084,-119.206106870229,1.9465648854961832,-794.5871559633027,-200.91743119266056,-257.70642201834863,,
1760462387.3319423,343,-0.5677582417582419,1.8110769230769237,163.96714285714287,220.8091603053435,-113.34351145038168,1.9465648854961832,-735.8715596330275,-200.91743119266056,-234.2201834862385,,
1760462387.3426876,344,-0.6252527472527473,1.7535824175824175,160.30186813186813,236.44274809160305,-113.34351145038168,1.9465648854961832,-677.1559633027523,-177.4311926605505,-281.1926605504587,,
1760462387.3948228,345,-0.5461978021978022,1.7176483516483516,162.17043956043958,234.4885496183206,-123.1145038167939,1.9465648854961832,-559.7247706422019,-200.91743119266056,-281.1926605504587,,
1760462387.4053233,346,-0.6036923076923078,1.688901098901099,149.2198021978022,238.3969465648855,-113.34351145038168,1.9465648854961832,-501.0091743119266,-224.40366972477065,-281.1926605504587,,
1760462387.4263508,347,-0.6683736263736263,1.6242197802197802,154.7752087912088,234.4885496183206,-115.29770992366412,1.9465648854961832,-442.29357798165137,-106.97247706422016,-281.1926605504587,,
1760462387.457799,348,-0.5533846153846155,1.6457802197802198,163.78747252747254,236.44274809160305,-127.02290076335878,1.9465648854961832,-383.57798165137615,-200.91743119266056,-210.7339449541284,,
1760462387.4683568,349,-0.6755604395604397,1.7176483516483516,149.29167032967032,224.7175572519084,-121.16030534351144,1.9465648854961832,-324.86238532110093,-177.4311926605505,-210.7339449541284,,
1760462387.5206146,350,-0.539010989010989,1.7320219780219783,169.50817582417582,238.3969465648855,-105.52671755725191,1.9465648854961832,-148.71559633027522,-130.45871559633028,-234.2201834862385,,
1760462387.5829332,351,-0.6468131868131869,1.573912087912088,165.81415384615386,238.3969465648855,-115.29770992366412,1.9465648854961832,86.14678899082568,-153.85321100917432,-257.70642201834863,,
1760462387.6451416,352,-0.6324395604395605,1.7392087912087917,158.40454945054947,234.4885496183206,-121.16030534351144,1.9465648854961832,203.5779816513761,-177.3394495412844,-257.70642201834863,,
1760462387.6556883,353,-0.6324395604395605,1.7032747252747251,158.40454945054947,234.4885496183206,-119.206106870229,1.9465648854961832,262.29357798165137,-200.8256880733945,-234.2201834862385,,
1760462387.67661,354,-0.5965054945054945,1.7463956043956046,169.3285054945055,236.44274809160305,-113.34351145038168,1.9465648854961832,321.0091743119266,-177.3394495412844,-257.70642201834863,,
1760462387.7079809,355,-0.5246373626373626,1.7176483516483516,162.02670329670332,232.53435114503816,-115.29770992366412,1.9465648854961832,379.7247706422018,-247.7981651376147,-234.2201834862385,,
1760462387.718497,356,-0.4887032967032967,1.6745274725274726,169.500989010989,242.3053435114504,-125.06870229007632,1.9465648854961832,438.4403669724771,-200.8256880733945,-257.70642201834863,,
1760462387.7394316,357,-0.5605714285714286,1.6601538461538463,152.9281978021978,234.4885496183206,-121.16030534351144,1.9465648854961832,497.1559633027523,-177.3394495412844,-257.70642201834863,,
1760462387.7808468,358,-0.654,1.609846153846154,149.17668131868132,236.44274809160305,-134.83969465648855,1.9465648854961832,614.5871559633027,-200.8256880733945,-234.2201834862385,,
1760462387.8120513,359,-0.574945054945055,1.8110769230769237,158.33986813186814,222.763358778626,-117.25190839694656,1.9465648854961832,673.302752293578,-153.85321100917432,-210.7339449541284,,
1760462387.8225296,360,-0.4958901098901099,1.7535824175824175,167.56773626373626,238.3969465648855,-109.4351145038168,1.9465648854961832,732.0183486238532,-177.3394495412844,-281.1926605504587,,
1760462387.8435223,361,-0.6611868131868132,1.6960879120879122,158.3758021978022,240.35114503816797,-115.29770992366412,1.9465648854961832,849.4495412844037,-200.8256880733945,-281.1926605504587,,
1760462387.9058282,362,-0.5246373626373626,1.7463956043956046,156.60784615384617,228.6259541984733,-117.25190839694656,-85.99236641221374,0.3669724770642202,-6.330275229357799,21.467889908256883,,
1760462387.9161878,363,-0.4383956043956044,-156.38505494505495,211.8888131868132,15.572519083969466,15.572519083969466,9.427480916030534,-1972.844036697248,-587.2477064220184,540.1834862385322,,
1760462387.936993,364,-0.4096483516483516,79.11243956043957,211.91037362637368,15.564885496183209,15.564885496183209,9.396946564885496,-1831.9266055045875,-375.8715596330275,775.045871559633,,
1760462388.029602,365,-0.4383956043956044,-156.38505494505495,211.92474725274727,15.564885496183209,15.549618320610689,9.427480916030534,-1902.3853211009173,-1996.330275229358,2706.238532110092,,
1760462388.04005,366,-0.5461978021978022,1.767956043956044,165.7422857142857,228.6259541984733,-119.206106870229,1.9465648854961832,1436.605504587156,-153.85321100917432,-257.70642201834863,,
1760462388.0609355,367,-0.5605714285714286,1.7104615384615385,156.54316483516484,242.3053435114504,-111.38931297709924,1.9465648854961832,1495.3211009174313,-177.3394495412844,-234.2201834862385,,
1760462388.0920656,368,-0.5605714285714286,1.631406593406593,162.0698241758242,250.12213740458012,-117.25190839694656,1.9465648854961832,1554.0366972477066,-224.3119266055046,-234.2201834862385,,
1760462388.102689,369,-0.6036923076923078,1.7463956043956046,154.79676923076926,236.44274809160305,-119.206106870229,1.9465648854961832,1612.7522935779816,-200.8256880733945,-281.1926605504587,,
1760462388.123581,370,-0.654,1.6529670329670332,151.08837362637362,230.5801526717557,-119.206106870229,1.9465648854961832,1671.467889908257,-200.8256880733945,-257.70642201834863,,
1760462388.1549888,371,-0.6180659340659341,1.7392087912087917,165.7782197802198,224.7175572519084,-105.52671755725191,1.9465648854961832,1730.183486238532,-200.8256880733945,-257.70642201834863,,
1760462388.1655648,372,-0.7114945054945055,1.7032747252747251,167.55336263736265,238.3969465648855,-115.29770992366412,1.9465648854961832,1788.8990825688072,-200.8256880733945,-304.6788990825688,,
1760462388.1865444,373,-0.6683736263736263,1.7967032967032968,162.05545054945057,246.21374045801528,-111.38931297709924,1.9465648854961832,1847.6146788990825,-200.8256880733945,-257.70642201834863,,
1760462388.2176669,374,-0.654,1.7032747252747251,149.30604395604396,240.35114503816797,-123.1145038167939,1.9465648854961832,1906.3302752293575,-200.8256880733945,-210.7339449541284,,
1760462388.2280872,375,-0.6180659340659341,1.7176483516483516,162.05545054945057,242.3053435114504,-115.29770992366412,1.9465648854961832,1965.0458715596328,-224.3119266055046,-281.1926605504587,,
1760462388.311062,376,-0.5965054945054945,1.6960879120879122,154.64584615384618,226.67175572519085,-113.34351145038168,1.9465648854961832,2199.908256880734,-130.36697247706422,-210.7339449541284,,
1760462388.321577,377,-0.5821318681318681,1.7032747252747251,160.30186813186813,236.44274809160305,-113.34351145038168,1.9465648854961832,2258.623853211009,-200.8256880733945,-210.7339449541284,,
1760462388.34263,378,-0.6180659340659341,1.6673406593406594,151.00213186813187,234.4885496183206,-115.29770992366412,1.9465648854961832,2317.3394495412845,-200.8256880733945,-234.2201834862385,,
1760462388.3533423,379,-0.5533846153846155,1.6745274725274726,158.41173626373626,238.3969465648855,-117.25190839694656,1.9465648854961832,2376.05504587156,-200.8256880733945,-234.2201834862385,,
1760462388.405336,380,-0.5461978021978022,1.7104615384615385,149.19824175824175,236.44274809160305,-119.206106870229,1.9465648854961832,2493.48623853211,-200.8256880733945,-234.2201834862385,,
1760462388.4159887,381,-0.4671428571428571,1.7032747252747251,160.27312087912088,242.3053435114504,-115.29770992366412,1.9465648854961832,2552.201834862385,-200.8256880733945,-281.1926605504587,,
1760462388.4474325,382,-0.4743296703296704,1.7176483516483516,147.4159120879121,244.25954198473283,-107.48091603053436,1.9465648854961832,2610.9174311926604,-200.8256880733945,-257.70642201834863,,
1760462388.4580283,383,-0.5318241758241758,1.688901098901099,147.37997802197802,230.5801526717557,-115.29770992366412,1.9465648854961832,2669.633027522936,-200.8256880733945,-234.2201834862385,,
1760462388.4799345,384,-0.6180659340659341,1.6960879120879122,156.55035164835166,224.7175572519084,-117.25190839694656,1.9465648854961832,2728.348623853211,-177.3394495412844,-304.6788990825688,,
1760462388.51152,385,-0.5605714285714286,1.688901098901099,162.09138461538464,232.53435114503816,-111.38931297709924,1.9465648854961832,2787.064220183486,-153.85321100917432,-210.7339449541284,,
1760462388.5222104,386,-0.6036923076923078,1.724835164835165,150.98057142857144,236.44274809160305,-121.16030534351144,1.9465648854961832,2845.779816513761,-130.36697247706422,-257.70642201834863,,
1760462388.543245,387,-0.6683736263736263,1.7176483516483516,158.3686153846154,250.12213740458012,-115.29770992366412,1.9465648854961832,2904.4954128440368,-224.3119266055046,-234.2201834862385,,
1760462388.553785,388,-0.654,1.724835164835165,163.92402197802198,240.35114503816797,-115.29770992366412,1.9465648854961832,2963.211009174312,-153.85321100917432,-304.6788990825688,,
1760462388.57472,389,-0.6611868131868132,1.7823296703296705,152.91382417582415,230.5801526717557,-113.34351145038168,1.9465648854961832,-2990.5504587155965,-177.3394495412844,-281.1926605504587,,
1760462388.637314,390,-0.4455824175824175,1.8110769230769237,165.7782197802198,232.53435114503816,-125.06870229007632,1.9465648854961832,-2814.4036697247707,-200.8256880733945,-281.1926605504587,,
1760462388.668673,391,-0.6683736263736263,1.573912087912088,149.12637362637363,-248.19847328244276,-113.34351145038168,1.9465648854961832,-2755.6880733944954,-224.3119266055046,-304.6788990825688,,
1760462388.6791277,392,-0.6468131868131869,1.6601538461538463,152.9281978021978,230.5801526717557,-115.29770992366412,1.9465648854961832,-2696.97247706422,-200.8256880733945,-281.1926605504587,,
1760462388.699998,393,-0.6036923076923078,1.6745274725274726,162.09138461538464,230.5801526717557,-115.29770992366412,1.9465648854961832,-2579.5412844036696,-153.85321100917432,-210.7339449541284,,
1760462388.7312477,394,-0.6396263736263736,1.7392087912087917,158.33986813186814,238.3969465648855,-115.29770992366412,1.9465648854961832,-2520.8256880733943,-200.8256880733945,-281.1926605504587,,
1760462388.7418966,395,-0.6180659340659341,1.7320219780219783,158.36142857142858,238.3969465648855,-107.48091603053436,1.9465648854961832,-2462.1100917431195,-200.8256880733945,-234.2201834862385,,
1760462388.8659832,396,-0.5174505494505495,1.7392087912087917,165.7279120879121,250.12213740458012,-109.4351145038168,1.9465648854961832,-2109.816513761468,-200.8256880733945,-234.2201834862385,,
1760462388.8971684,397,-0.5893186813186814,1.7751428571428571,163.98151648351651,232.53435114503816,-121.16030534351144,1.9465648854961832,-2051.100917431193,-200.8256880733945,-210.7339449541284,,
1760462388.9076278,398,-0.5677582417582419,1.7967032967032968,152.89945054945056,234.4885496183206,-109.4351145038168,1.9465648854961832,-1992.3853211009173,-177.3394495412844,-210.7339449541284,,
1760462388.9285083,399,-0.6252527472527473,1.7607692307692309,163.93839560439562,226.67175572519085,-121.16030534351144,1.9465648854961832,-1933.6697247706425,-153.85321100917432,-234.2201834862385,,
1760462388.9596426,400,-0.4815164835164835,1.6026593406593408,162.077010989011,234.4885496183206,-119.206106870229,1.9465648854961832,-1874.954128440367,-200.8256880733945,-257.70642201834863,,
1760462388.9700997,401,-0.7258681318681319,1.7320219780219783,167.5892967032967,234.4885496183206,-107.48091603053436,1.9465648854961832,-1816.238532110092,-153.85321100917432,-257.70642201834863,,
1760462388.990891,402,-0.5965054945054945,1.7320219780219783,162.14169230769232,238.3969465648855,-107.48091603053436,1.9465648854961832,-1757.5229357798164,-177.3394495412844,-234.2201834862385,,
1760462389.0221136,403,-0.5965054945054945,1.7463956043956046,156.57909890109892,242.3053435114504,-113.34351145038168,1.9465648854961832,-1698.8073394495411,-153.85321100917432,-281.1926605504587,,
1760462389.032585,404,-0.5821318681318681,1.7607692307692309,169.45786813186814,234.4885496183206,-119.206106870229,1.9465648854961832,-1640.091743119266,-153.85321100917432,-210.7339449541284,,
1760462389.1156106,405,1.3726813186813187,-110.08041758241758,-13.892109890109891,-17.53435114503817,-89.83969465648855,0.0305343511450381,-8.440366972477065,22.01834862385321,1928.5321100917436,,
1760462389.126469,406,-0.4383956043956044,-156.38505494505495,213.00276923076925,15.564885496183209,15.557251908396946,9.419847328244275,-1855.4128440366972,-352.38532110091745,728.0733944954129,,
1760462389.1476822,407,-0.4168351648351648,79.11243956043957,213.02432967032968,15.580152671755725,15.549618320610689,9.419847328244275,-1878.8990825688077,-587.2477064220184,516.6972477064221,,
1760462389.1581137,408,-0.424021978021978,-156.38505494505495,213.0387032967033,15.580152671755725,15.557251908396946,9.412213740458014,-1996.330275229358,-328.89908256880733,540.1834862385322,,
1760462389.178915,409,-0.4383956043956044,79.11243956043957,213.06026373626372,15.564885496183209,15.564885496183209,9.412213740458014,-1691.0091743119267,-610.7339449541284,610.6422018348624,,
1760462389.210192,410,-0.4312087912087912,-156.38505494505495,213.0746373626374,15.580152671755725,15.557251908396946,9.427480916030534,-1902.3853211009173,-516.7889908256881,657.6146788990826,,
1760462389.2207098,411,-0.4024615384615385,79.11243956043957,213.09619780219785,15.572519083969466,15.557251908396946,9.404580152671755,-1996.330275229358,-634.2201834862385,775.045871559633,,
1760462389.2414973,412,-0.4096483516483516,-156.38505494505495,213.11057142857143,15.580152671755725,15.541984732824428,9.412213740458014,-1902.3853211009173,-563.7614678899083,563.6697247706422,,
1760462389.2726898,413,-0.4527692307692308,62.55402197802199,-3.0543956043956046,0.8778625954198473,-0.4885496183206106,-166.10687022900763,2720.917431192661,186.9724770642202,187.06422018348624,,
1760462389.3661294,414,-0.6036923076923078,1.7535824175824175,165.7782197802198,240.35114503816797,-123.1145038167939,1.9465648854961832,-641.9266055045871,-153.85321100917432,-257.70642201834863,,
1760462389.3766088,415,-0.5318241758241758,1.7392087912087917,158.44767032967033,234.4885496183206,-111.38931297709924,1.9465648854961832,-583.2110091743119,-247.7981651376147,-281.1926605504587,,
1760462389.397857,416,-0.5605714285714286,1.688901098901099,163.88090109890112,228.6259541984733,-128.9770992366412,1.9465648854961832,-524.4954128440367,-177.3394495412844,-210.7339449541284,,
1760462389.4910023,417,-0.654,1.6960879120879122,163.8737142857143,236.44274809160305,-113.34351145038168,1.9465648854961832,-230.91743119266056,-224.3119266055046,-234.2201834862385,,
1760462389.522183,418,-0.5677582417582419,1.6960879120879122,160.2874945054945,226.67175572519085,-117.25190839694656,1.9465648854961832,-172.2018348623853,-224.3119266055046,-210.7339449541284,,
1760462389.5327582,419,-0.574945054945055,1.7176483516483516,167.66835164835166,236.44274809160305,-115.29770992366412,1.9465648854961832,-113.48623853211008,-177.3394495412844,-257.70642201834863,,
1760462389.6157396,420,-0.6252527472527473,1.6457802197802198,141.8173846153846,240.35114503816797,-109.4351145038168,1.9465648854961832,121.37614678899082,-130.27522935779817,-234.2201834862385,,
1760462389.647233,421,-0.5821318681318681,1.6817142857142855,160.26593406593406,232.53435114503816,-115.29770992366412,1.9465648854961832,180.09174311926606,-177.24770642201835,-257.70642201834863,,
1760462389.657713,422,-0.6755604395604397,1.7320219780219783,152.8635164835165,232.53435114503816,-107.48091603053436,1.9465648854961832,238.80733944954127,-177.24770642201835,-234.2201834862385,,
1760462389.6786258,423,-0.5605714285714286,1.724835164835165,178.62105494505494,236.44274809160305,-111.38931297709924,1.9465648854961832,297.5229357798165,-130.27522935779817,-281.1926605504587,,
1760462389.6892352,424,-0.4887032967032967,1.767956043956044,149.26292307692307,236.44274809160305,-109.4351145038168,1.9465648854961832,356.23853211009174,-177.24770642201835,-210.7339449541284,,
1760462389.7417104,425,-0.6108791208791209,1.8110769230769237,167.66835164835166,246.21374045801528,-119.206106870229,-119.21374045801528,23.39449541284404,473.6697247706422,-200.7339449541284,,
1760462389.7522311,426,-0.6180659340659341,1.6385934065934065,145.54734065934068,236.44274809160305,-111.38931297709924,1.9465648854961832,532.3853211009174,-177.24770642201835,-257.70642201834863,,
1760462389.773075,427,-0.574945054945055,1.5954725274725277,154.7608351648352,236.44274809160305,-109.4351145038168,1.9465648854961832,591.1009174311927,-177.24770642201835,-257.70642201834863,,
1760462389.783528,428,-0.6108791208791209,1.767956043956044,152.9281978021978,230.5801526717557,-101.61832061068702,1.9465648854961832,649.816513761468,-153.76146788990826,-257.70642201834863,,
1760462389.8663802,429,-0.6324395604395605,1.6529670329670332,162.10575824175828,-248.19847328244276,-121.16030534351144,1.9465648854961832,884.6788990825688,-153.76146788990826,-257.70642201834863,,
1760462389.8978026,430,-0.5318241758241758,1.80389010989011,162.0123296703297,224.7175572519084,-115.29770992366412,1.9465648854961832,943.394495412844,-177.24770642201835,-281.1926605504587,,
1760462389.9082077,431,-0.6252527472527473,1.7392087912087917,160.24437362637363,244.25954198473283,-109.4351145038168,1.9465648854961832,1002.1100917431193,-177.24770642201835,-187.24770642201835,,
1760462389.929195,432,-0.5965054945054945,1.7032747252747251,152.88507692307692,246.21374045801528,-115.29770992366412,1.9465648854961832,1060.8256880733943,-177.24770642201835,-234.2201834862385,,
1760462389.9397967,433,-0.5246373626373626,1.6960879120879122,149.17668131868132,238.3969465648855,-109.4351145038168,1.9465648854961832,1119.5412844036698,-224.2201834862385,-234.2201834862385,,
1760462389.9607604,434,-0.6611868131868132,1.6529670329670332,173.17345054945056,230.5801526717557,-115.29770992366412,1.9465648854961832,1178.256880733945,-177.24770642201835,-257.70642201834863,,
1760462389.9920478,435,-0.5461978021978022,1.6817142857142855,156.56472527472528,234.4885496183206,-115.29770992366412,1.9465648854961832,1236.97247706422,-153.76146788990826,-257.70642201834863,,
1760462390.0025363,436,-0.4887032967032967,1.7176483516483516,163.98151648351651,234.4885496183206,-109.4351145038168,1.9465648854961832,1295.6880733944954,-200.7339449541284,-281.1926605504587,,
1760462390.0233884,437,-0.6036923076923078,1.7032747252747251,147.22905494505494,236.44274809160305,-115.29770992366412,1.9465648854961832,1354.403669724771,-177.24770642201835,-234.2201834862385,,
1760462390.0442553,438,-0.5318241758241758,1.7320219780219783,150.94463736263737,246.21374045801528,-123.1145038167939,1.9465648854961832,1413.119266055046,-200.7339449541284,-234.2201834862385,,
1760462390.0548563,439,-0.6180659340659341,1.7895164835164834,163.96714285714287,240.35114503816797,-117.25190839694656,1.9465648854961832,1471.8348623853212,-153.76146788990826,-210.7339449541284,,
1760462390.076002,440,-0.7114945054945055,1.688901098901099,162.19918681318683,246.21374045801528,-121.16030534351144,1.9465648854961832,1530.5504587155965,-153.76146788990826,-234.2201834862385,,
1760462390.0865548,441,-0.4671428571428571,1.6817142857142855,158.29674725274725,232.53435114503816,-113.34351145038168,1.9465648854961832,1589.2660550458716,-177.24770642201835,-257.70642201834863,,
1760462390.1177948,442,-0.6108791208791209,1.7104615384615385,164.00307692307695,232.53435114503816,-117.25190839694656,1.9465648854961832,1647.9816513761466,-200.7339449541284,-234.2201834862385,,
1760462390.211615,443,-0.5605714285714286,1.5810989010989014,167.538989010989,246.21374045801528,-117.25190839694656,1.9465648854961832,1882.844036697248,-177.24770642201835,-210.7339449541284,,
1760462390.2220948,444,-0.6036923076923078,1.724835164835165,160.24437362637363,250.12213740458012,-117.25190839694656,1.9465648854961832,1941.5596330275228,-200.7339449541284,-210.7339449541284,,
1760462390.242972,445,-0.5533846153846155,1.8110769230769237,167.60367032967034,234.4885496183206,-107.48091603053436,1.9465648854961832,2000.275229357798,-177.24770642201835,-234.2201834862385,,
1760462390.253428,446,-0.5318241758241758,1.6673406593406594,167.62523076923077,228.6259541984733,-125.06870229007632,1.9465648854961832,2058.990825688073,-130.27522935779817,-304.6788990825688,,
1760462390.3060129,447,-0.4383956043956044,1.6673406593406594,173.15907692307695,220.8091603053435,-105.52671755725191,1.9465648854961832,2235.137614678899,-177.24770642201835,-234.2201834862385,,
1760462390.3385234,448,-0.5030769230769231,1.7176483516483516,149.10481318681315,234.4885496183206,-127.02290076335878,1.9465648854961832,2293.853211009174,-153.76146788990826,-210.7339449541284,,
1760462390.348879,449,-0.6683736263736263,1.767956043956044,169.42193406593407,234.4885496183206,-117.25190839694656,1.9465648854961832,2352.568807339449,-153.76146788990826,-234.2201834862385,,
1760462390.3696184,450,-0.6611868131868132,1.6026593406593408,150.99494505494508,228.6259541984733,-105.52671755725191,1.9465648854961832,2411.2844036697247,-177.24770642201835,-257.70642201834863,,
1760462390.4017162,451,-0.5965054945054945,1.7535824175824175,156.57909890109892,232.53435114503816,-115.29770992366412,1.9465648854961832,2528.7155963302757,-224.2201834862385,-304.6788990825688,,
1760462390.4326534,452,-0.6252527472527473,1.8254505494505493,154.74646153846157,236.44274809160305,-111.38931297709924,1.9465648854961832,2587.4311926605506,-130.27522935779817,-281.1926605504587,,
1760462390.4957492,453,-0.5102637362637363,1.6601538461538463,156.5216043956044,234.4885496183206,-125.06870229007632,1.9465648854961832,2763.577981651376,-200.7339449541284,-257.70642201834863,,
1760462390.5060742,454,-0.5821318681318681,1.6960879120879122,158.51235164835165,228.6259541984733,-113.34351145038168,1.9465648854961832,2822.293577981651,-177.24770642201835,-257.70642201834863,,
1760462390.5584412,455,-0.6108791208791209,1.7320219780219783,160.20125274725274,226.67175572519085,-117.25190839694656,1.9465648854961832,2939.7247706422017,-200.7339449541284,-257.70642201834863,,
1760462390.5697634,456,-0.6611868131868132,1.7176483516483516,154.7752087912088,240.35114503816797,-123.1145038167939,1.9465648854961832,2998.440366972477,-200.7339449541284,-281.1926605504587,,
1760462390.5904174,457,-0.6108791208791209,1.7032747252747251,162.077010989011,230.5801526717557,-121.16030534351144,1.9465648854961832,-2955.321100917431,-200.7339449541284,-257.70642201834863,,
1760462390.6007748,458,-0.5461978021978022,1.5882857142857143,152.77008791208792,228.6259541984733,-117.25190839694656,1.9465648854961832,-2896.605504587156,-177.24770642201835,-304.6788990825688,,
1760462390.682982,459,-0.5533846153846155,1.6960879120879122,158.24643956043957,236.44274809160305,-113.34351145038168,1.9465648854961832,-2661.743119266055,-153.76146788990826,-257.70642201834863,,
1760462390.714133,460,-0.5533846153846155,1.6960879120879122,152.84914285714285,232.53435114503816,-119.206106870229,1.9465648854961832,-2603.02752293578,-177.24770642201835,-234.2201834862385,,
1760462390.7244985,461,-0.7186813186813188,1.5882857142857143,160.27312087912088,232.53435114503816,-117.25190839694656,1.9465648854961832,-2544.3119266055046,-177.24770642201835,-257.70642201834863,,
1760462390.7453055,462,-0.5677582417582419,1.688901098901099,165.6847912087912,232.53435114503816,-119.206106870229,1.9465648854961832,-2485.5963302752293,-177.24770642201835,-281.1926605504587,,
1760462390.776477,463,-0.5102637362637363,1.7535824175824175,147.39435164835166,242.3053435114504,-113.34351145038168,1.9465648854961832,-2426.880733944954,-153.76146788990826,-257.70642201834863,,
1760462390.786884,464,-0.7258681318681319,1.7176483516483516,162.077010989011,244.25954198473283,-107.48091603053436,1.9465648854961832,-2368.1651376146788,-200.7339449541284,-281.1926605504587,,
1760462390.8075843,465,-0.459956043956044,1.6385934065934065,167.65397802197802,228.6259541984733,-113.34351145038168,1.9465648854961832,-2309.4495412844035,-153.76146788990826,-257.70642201834863,,
1760462390.8387756,466,-0.7546153846153847,1.6673406593406594,160.24437362637363,238.3969465648855,-115.29770992366412,1.9465648854961832,-2250.733944954128,-200.7339449541284,-281.1926605504587,,
1760462390.8492303,467,-0.5821318681318681,1.6529670329670332,158.497978021978,218.85496183206104,-119.206106870229,1.9465648854961832,-2192.0183486238534,-177.24770642201835,-210.7339449541284,,
1760462390.8701353,468,1.3151868131868132,0.0287472527472527,160.30186813186813,230.5801526717557,-121.16030534351144,1.9465648854961832,-2133.302752293578,-200.7339449541284,-210.7339449541284,,
1760462390.8806086,469,-0.6683736263736263,1.767956043956044,154.73927472527475,248.1679389312977,-123.1145038167939,1.9465648854961832,-2074.587155963303,-224.2201834862385,-257.70642201834863,,
1760462390.901338,470,-0.5461978021978022,1.6673406593406594,160.21562637362638,244.25954198473283,-123.1145038167939,1.9465648854961832,-2015.871559633028,-177.24770642201835,-257.70642201834863,,
1760462390.9946325,471,-0.6108791208791209,1.7535824175824175,160.23,240.35114503816797,-128.9770992366412,1.9465648854961832,-1781.0091743119265,-130.27522935779817,-257.70642201834863,,
1760462391.0053804,472,-0.5533846153846155,1.7823296703296705,156.5719120879121,232.53435114503816,-117.25190839694656,1.9465648854961832,-1722.2935779816514,-177.24770642201835,-281.1926605504587,,
1760462391.0262926,473,-0.5821318681318681,1.609846153846154,162.11294505494507,244.25954198473283,-119.206106870229,1.9465648854961832,-1663.577981651376,-200.7339449541284,-234.2201834862385,,
1760462391.036739,474,-0.5893186813186814,1.631406593406593,150.99494505494508,226.67175572519085,-119.206106870229,1.9465648854961832,-1604.8623853211009,-200.7339449541284,-234.2201834862385,,
1760462391.058193,475,-0.5605714285714286,1.7104615384615385,163.9168351648352,228.6259541984733,-115.29770992366412,1.9465648854961832,-1546.1467889908256,-153.76146788990826,-257.70642201834863,,
1760462391.0894778,476,-0.539010989010989,1.5810989010989014,160.15813186813187,216.90076335877865,-123.1145038167939,1.9465648854961832,-1487.4311926605503,-200.7339449541284,-257.70642201834863,,
1760462391.10014,477,-0.5893186813186814,1.7607692307692309,167.5892967032967,232.53435114503816,-119.206106870229,1.9465648854961832,-1428.7155963302753,-200.7339449541284,-210.7339449541284,,
1760462391.275821,478,-0.5821318681318681,1.617032967032967,165.77103296703297,250.12213740458012,-117.25190839694656,1.9465648854961832,-841.559633027523,-130.27522935779817,-257.70642201834863,,
1760462391.3068595,479,1.085208791208791,0.0359340659340659,163.95995604395603,224.7175572519084,-117.25190839694656,1.9465648854961832,-782.8440366972477,-200.7339449541284,-210.7339449541284,,
1760462391.369038,480,-0.6971208791208792,1.688901098901099,167.55336263736265,248.1679389312977,-105.52671755725191,1.9465648854961832,-606.697247706422,-106.78899082568807,-234.2201834862385,,
1760462391.4005148,481,-0.6683736263736263,1.6960879120879122,151.0668131868132,232.53435114503816,-121.16030534351144,1.9465648854961832,-547.9816513761467,-59.816513761467895,-281.1926605504587,,
1760462391.4110787,482,-0.6755604395604397,1.6960879120879122,160.25874725274724,240.35114503816797,-115.29770992366412,1.9465648854961832,-489.2660550458716,-177.24770642201835,-304.6788990825688,,
1760462391.431842,483,-0.5821318681318681,1.6457802197802198,174.92703296703297,230.5801526717557,-117.25190839694656,1.9465648854961832,-371.8348623853211,-177.24770642201835,-210.7339449541284,,
1760462391.462947,484,-0.574945054945055,1.7535824175824175,162.17043956043958,250.12213740458012,-117.25190839694656,1.9465648854961832,-313.1192660550459,-200.7339449541284,-210.7339449541284,,
1760462391.5250227,485,-0.6252527472527473,1.7032747252747251,158.40454945054947,242.3053435114504,-119.206106870229,1.9465648854961832,-136.9724770642202,-130.27522935779817,-281.1926605504587,,
1760462391.5871816,486,-0.5893186813186814,1.7392087912087917,3.068769230769231,-14.740458015267176,-15.580152671755725,-89.83969465648855,0.3669724770642202,-6.146788990825688,21.192660550458715,,
1760462391.6285422,487,-0.424021978021978,-156.38505494505495,215.30254945054944,15.572519083969466,15.557251908396946,9.427480916030534,-1784.9541284403672,-281.92660550458714,704.5871559633028,,
1760462391.6600237,488,-0.4168351648351648,79.11243956043957,215.3241098901099,15.557251908396946,15.557251908396946,9.419847328244275,-1972.844036697248,-305.41284403669727,446.2385321100918,,
1760462391.670524,489,-0.4312087912087912,-156.38505494505495,215.33848351648356,15.572519083969466,15.557251908396946,9.427480916030534,-1855.4128440366972,-610.7339449541284,516.6972477064221,,
1760462391.691398,490,-0.424021978021978,79.11243956043957,215.360043956044,15.587786259541986,15.549618320610689,9.419847328244275,-1503.119266055046,-563.7614678899083,281.8348623853211,,
1760462391.7018387,491,-0.4455824175824175,-156.38505494505495,215.3744175824176,15.572519083969466,15.541984732824428,9.404580152671755,-1691.0091743119267,-610.7339449541284,540.1834862385322,,
1760462391.847019,492,62.86305494505495,-13.877736263736264,-22.02758241758242,-95.70229007633588,0.0305343511450381,-0.7862595419847328,20.36697247706422,2257.4311926605506,2771.192660550458,,
1760462391.85767,493,-0.4383956043956044,-156.38505494505495,215.5181538461539,15.564885496183209,15.541984732824428,9.404580152671755,-2066.7889908256884,-681.1926605504588,540.1834862385322,,
1760462391.878961,494,-0.4958901098901099,79.11243956043957,215.5397142857143,15.564885496183209,15.572519083969466,9.412213740458014,-1902.3853211009173,-845.5963302752293,328.8073394495413,,
1760462391.910452,495,-0.4383956043956044,-156.38505494505495,215.55408791208797,15.587786259541986,15.572519083969466,9.419847328244275,-1597.0642201834862,-869.0825688073394,845.5045871559633,,
1760462391.9209216,496,-0.4168351648351648,79.11243956043957,215.5756483516484,15.572519083969466,15.557251908396946,9.412213740458014,-1784.9541284403672,-657.7064220183487,563.6697247706422,,
1760462391.9415593,497,-0.4383956043956044,-156.38505494505495,215.590021978022,15.564885496183209,15.557251908396946,9.404580152671755,-2066.7889908256884,-704.6788990825688,234.86238532110093,,
1760462391.9519708,498,-0.4455824175824175,79.11243956043957,215.61158241758244,15.572519083969466,15.557251908396946,9.419847328244275,-1784.9541284403672,-305.41284403669727,375.7798165137615,,
1760462391.9728012,499,-0.424021978021978,-156.38505494505495,215.62595604395605,15.572519083969466,15.564885496183209,9.404580152671755,-1855.4128440366972,-446.3302752293578,399.2660550458716,,
1760462392.0039442,500,-0.4312087912087912,79.11243956043957,215.64751648351648,15.564885496183209,15.564885496183209,9.427480916030534,-1996.330275229358,-422.8440366972477,563.6697247706422,,
1760462392.0144532,501,-0.4168351648351648,-156.38505494505495,215.66189010989007,15.564885496183209,15.541984732824428,9.419847328244275,-1714.4954128440368,-446.3302752293578,516.6972477064221,,
1760462392.045733,502,-0.4024615384615385,-156.38505494505495,215.6978241758242,15.564885496183209,15.557251908396946,9.404580152671755,-1714.4954128440368,-305.41284403669727,657.6146788990826,,
1760462392.0664136,503,-0.424021978021978,79.11243956043957,215.71938461538463,15.572519083969466,15.557251908396946,9.419847328244275,-1432.6605504587158,-328.89908256880733,775.045871559633,,
1760462392.1285343,504,-0.4168351648351648,-156.38505494505495,215.7696923076923,15.557251908396946,15.564885496183209,9.419847328244275,-2066.7889908256884,-1174.403669724771,728.0733944954129,,
1760462392.17005,505,-0.4383956043956044,79.11243956043957,215.7912527472528,15.572519083969466,15.534351145038167,9.404580152671755,-1761.467889908257,-469.8165137614679,446.2385321100918,,
1760462392.1806226,506,-0.4096483516483516,-156.38505494505495,215.8056263736264,15.564885496183209,15.541984732824428,9.419847328244275,-1831.9266055045875,-446.3302752293578,563.6697247706422,,
1760462392.294557,507,-0.4383956043956044,-156.38505494505495,215.91342857142857,15.572519083969466,15.541984732824428,9.419847328244275,-1784.9541284403672,-634.2201834862385,657.6146788990826,,
1760462392.3051708,508,-0.424021978021978,79.11243956043957,215.93498901098903,15.572519083969466,15.549618320610689,9.419847328244275,-2090.2752293577983,-775.1376146788991,868.9908256880734,,
1760462392.326227,509,-0.4312087912087912,-156.38505494505495,215.94936263736264,15.564885496183209,15.541984732824428,9.427480916030534,-1996.330275229358,-845.5963302752293,540.1834862385322,,
1760462392.3575509,510,-0.424021978021978,79.11243956043957,215.9709230769231,15.572519083969466,15.549618320610689,9.412213740458014,-1972.844036697248,-211.4678899082569,657.6146788990826,,
1760462392.368015,511,-0.3952747252747253,-156.38505494505495,215.9852967032967,15.580152671755725,15.557251908396946,9.419847328244275,-1902.3853211009173,-681.1926605504588,469.72477064220186,,
1760462392.388939,512,-0.4312087912087912,79.11243956043957,216.00685714285717,15.557251908396946,15.557251908396946,9.427480916030534,-1714.4954128440368,-446.3302752293578,493.2110091743119,,
1760462392.399442,513,-0.459956043956044,-156.38505494505495,216.0212307692308,15.557251908396946,15.557251908396946,9.427480916030534,-2254.678899082569,-587.2477064220184,822.0183486238533,,
1760462392.4203398,514,-0.4743296703296704,79.11243956043957,216.0427912087912,15.572519083969466,15.541984732824428,9.404580152671755,-2113.7614678899085,-469.8165137614679,516.6972477064221,,
1760462392.4825983,515,-0.4455824175824175,-156.38505494505495,216.0930989010989,15.572519083969466,15.557251908396946,9.427480916030534,-2184.2201834862385,-516.7889908256881,657.6146788990826,,
1760462392.5139444,516,-0.4455824175824175,79.11243956043957,216.11465934065936,15.572519083969466,15.549618320610689,9.412213740458014,-1996.330275229358,-704.6788990825688,587.1559633027523,,
1760462392.5244908,517,-0.4312087912087912,-156.38505494505495,216.12903296703297,15.572519083969466,15.564885496183209,9.419847328244275,-1902.3853211009173,-94.03669724770644,751.559633027523,,
1760462392.5454595,518,-0.424021978021978,79.11243956043957,216.15059340659343,15.557251908396946,15.564885496183209,9.427480916030534,-1479.633027522936,-47.06422018348624,798.5321100917431,,
1760462392.5559042,519,-0.4312087912087912,-156.38505494505495,216.16496703296704,15.572519083969466,15.564885496183209,9.435114503816791,-2160.7339449541287,-399.3577981651376,469.72477064220186,,
1760462392.576789,520,-0.4455824175824175,79.11243956043957,216.18652747252747,15.557251908396946,15.557251908396946,9.419847328244275,-2113.7614678899085,-422.8440366972477,540.1834862385322,,
1760462392.6079972,521,-0.4455824175824175,-156.38505494505495,216.2009010989011,15.572519083969466,15.534351145038167,9.396946564885496,-1972.844036697248,-704.6788990825688,798.5321100917431,,
1760462392.6185267,522,-0.4455824175824175,79.11243956043957,216.22246153846157,15.572519083969466,15.557251908396946,9.427480916030534,-2043.302752293578,-634.2201834862385,634.1284403669725,,
1760462392.639434,523,-0.3880879120879121,-156.38505494505495,216.2368351648352,15.572519083969466,15.541984732824428,9.412213740458014,-2137.2477064220184,-681.1926605504588,775.045871559633,,
1760462392.6498723,524,-0.4527692307692308,79.11243956043957,216.2583956043956,15.580152671755725,15.557251908396946,9.427480916030534,-1761.467889908257,-610.7339449541284,493.2110091743119,,
1760462392.671373,525,-0.3952747252747253,-156.38505494505495,216.27276923076923,15.572519083969466,15.557251908396946,9.412213740458014,-2043.302752293578,-446.3302752293578,258.34862385321105,,
1760462392.76457,526,-0.4312087912087912,-156.38505494505495,216.34463736263737,15.580152671755725,15.557251908396946,9.419847328244275,-1949.3577981651376,-234.954128440367,540.1834862385322,,
1760462392.7751532,527,-0.424021978021978,79.11243956043957,216.3661978021978,15.580152671755725,15.557251908396946,9.427480916030534,-1667.5229357798166,-70.55045871559633,728.0733944954129,,
1760462392.8685322,528,-0.4455824175824175,79.11243956043957,216.43806593406595,15.564885496183209,15.534351145038167,9.419847328244275,-2301.651376146789,-446.3302752293578,399.2660550458716,,
1760462392.879102,529,-0.3809010989010989,-156.38505494505495,216.4524395604396,15.572519083969466,15.541984732824428,9.404580152671755,-1667.5229357798166,-422.8440366972477,375.7798165137615,,
1760462392.8998826,530,-0.424021978021978,79.11243956043957,216.474,15.557251908396946,15.557251908396946,9.396946564885496,-2207.706422018349,-164.4954128440367,540.1834862385322,,
1760462392.9102695,531,-0.4096483516483516,-156.38505494505495,216.48837362637363,15.564885496183209,15.541984732824428,9.427480916030534,-2301.651376146789,-305.41284403669727,587.1559633027523,,
1760462392.9309406,532,-0.4096483516483516,79.11243956043957,216.5099340659341,15.580152671755725,15.549618320610689,9.396946564885496,-2113.7614678899085,-375.8715596330275,399.2660550458716,,
1760462393.0138886,533,-0.4024615384615385,-156.38505494505495,216.56024175824177,15.557251908396946,15.549618320610689,9.427480916030534,-1761.467889908257,-422.8440366972477,375.7798165137615,,
1760462393.0242355,534,-0.4168351648351648,79.11243956043957,216.5818021978022,15.572519083969466,15.557251908396946,9.435114503816791,-2301.651376146789,-446.3302752293578,610.6422018348624,,
1760462393.0861552,535,-0.4312087912087912,79.11243956043957,216.65367032967035,15.572519083969466,15.549618320610689,9.412213740458014,-2113.7614678899085,-446.3302752293578,657.6146788990826,,
1760462393.1690817,536,-0.4455824175824175,79.11243956043957,216.7255384615385,15.580152671755725,15.541984732824428,9.404580152671755,-2090.2752293577983,-422.8440366972477,751.559633027523,,
1760462393.179629,537,-0.3952747252747253,-156.38505494505495,216.7399120879121,15.564885496183209,15.549618320610689,9.427480916030534,-1620.5504587155965,-422.8440366972477,516.6972477064221,,
1760462393.2005131,538,-0.424021978021978,79.11243956043957,216.7614725274725,15.572519083969466,15.557251908396946,9.412213740458014,-1385.6880733944954,-869.0825688073394,657.6146788990826,,
1760462393.2110715,539,-0.4312087912087912,-156.38505494505495,216.77584615384615,15.580152671755725,15.549618320610689,9.419847328244275,-1996.330275229358,-422.8440366972477,399.2660550458716,,
1760462393.242408,540,-0.424021978021978,79.11243956043957,216.7974065934066,15.580152671755725,15.564885496183209,9.427480916030534,-2066.7889908256884,-775.1376146788991,469.72477064220186,,
1760462393.2735324,541,-0.459956043956044,-156.38505494505495,216.81178021978025,15.587786259541986,15.541984732824428,9.412213740458014,-1784.9541284403672,-141.0091743119266,868.9908256880734,,
1760462393.2840946,542,-0.4671428571428571,79.11243956043957,216.83334065934068,15.572519083969466,15.549618320610689,9.435114503816791,-2043.302752293578,-187.9816513761468,399.2660550458716,,
1760462393.335905,543,-0.424021978021978,79.11243956043957,216.86927472527472,15.580152671755725,15.564885496183209,9.419847328244275,-2113.7614678899085,-70.55045871559633,822.0183486238533,,
1760462393.3464637,544,-0.4096483516483516,-156.38505494505495,216.8836483516484,15.580152671755725,15.549618320610689,9.419847328244275,-1925.871559633028,-211.4678899082569,469.72477064220186,,
1760462393.3675067,545,-0.424021978021978,-156.38505494505495,216.91958241758243,15.572519083969466,15.564885496183209,9.419847328244275,-2207.706422018349,-399.3577981651376,1033.3944954128442,,
1760462393.402946,546,-0.4383956043956044,-156.38505494505495,216.9555164835165,15.564885496183209,15.557251908396946,9.412213740458014,-1949.3577981651376,-751.6513761467891,493.2110091743119,,
1760462393.434179,547,-0.4312087912087912,79.11243956043957,216.9770769230769,15.580152671755725,15.541984732824428,9.412213740458014,-2207.706422018349,-328.89908256880733,422.7522935779817,,
1760462393.4655848,548,-0.4383956043956044,-156.38505494505495,216.99145054945052,15.572519083969466,15.557251908396946,9.404580152671755,-1902.3853211009173,-540.2752293577981,610.6422018348624,,
1760462393.4968116,549,-0.4455824175824175,-156.38505494505495,217.02738461538465,15.564885496183209,15.557251908396946,9.404580152671755,-1737.9816513761468,-422.8440366972477,634.1284403669725,,
1760462393.5280588,550,-0.424021978021978,169.40756043956043,224.44417582417583,-127.02290076335878,1.9465648854961832,-8.465648854961833,-153.6697247706422,-257.70642201834863,-1032.7522935779816,,
1760462393.5593543,551,-0.4958901098901099,1.7032747252747251,160.18687912087913,248.1679389312977,-113.34351145038168,1.9465648854961832,-43.02752293577981,-153.6697247706422,-210.7339449541284,,
1760462393.5698624,552,-0.5821318681318681,1.6529670329670332,167.6324175824176,240.35114503816797,-113.34351145038168,1.9465648854961832,15.688073394495412,-224.0366972477064,-257.70642201834863,,
1760462393.6219978,553,-0.6036923076923078,1.609846153846154,158.39017582417583,234.4885496183206,-117.25190839694656,1.9465648854961832,133.11926605504587,-177.06422018348624,-281.1926605504587,,
1760462393.6325717,554,-0.4671428571428571,1.7320219780219783,163.95995604395603,230.5801526717557,-117.25190839694656,1.9465648854961832,191.83486238532112,-177.06422018348624,-234.2201834862385,,
1760462393.6535432,555,-0.5533846153846155,1.7535824175824175,165.7422857142857,238.3969465648855,-119.206106870229,1.9465648854961832,250.5504587155963,-200.5504587155963,-257.70642201834863,,
1760462393.6640017,556,-0.5893186813186814,1.6457802197802198,160.08626373626373,230.5801526717557,-117.25190839694656,1.9465648854961832,309.26605504587155,-177.06422018348624,-281.1926605504587,,
1760462393.6850908,557,-0.4958901098901099,1.7535824175824175,163.95995604395603,240.35114503816797,-109.4351145038168,1.9465648854961832,367.9816513761468,-200.5504587155963,-257.70642201834863,,
1760462393.7473829,558,-0.5821318681318681,1.6457802197802198,163.83059340659344,238.3969465648855,-119.206106870229,1.9465648854961832,544.1284403669724,-177.06422018348624,-281.1926605504587,,
1760462393.7786176,559,-0.5461978021978022,1.617032967032967,162.09138461538464,232.53435114503816,-117.25190839694656,1.9465648854961832,602.8440366972477,-177.06422018348624,-187.24770642201835,,
1760462393.7891483,560,-0.7043076923076923,1.609846153846154,156.59347252747253,224.7175572519084,-123.1145038167939,1.9465648854961832,661.559633027523,-247.5229357798165,-234.2201834862385,,
1760462393.810012,561,-0.5893186813186814,1.6817142857142855,160.25156043956045,238.3969465648855,-123.1145038167939,1.9465648854961832,720.2752293577981,-224.0366972477064,-234.2201834862385,,
1760462393.8723514,562,-0.5030769230769231,1.8326373626373629,160.23,244.25954198473283,-123.1145038167939,1.9465648854961832,896.4220183486239,-153.57798165137615,-210.7339449541284,,
1760462393.9036832,563,-0.5677582417582419,1.609846153846154,165.7422857142857,232.53435114503816,-138.74809160305344,1.9465648854961832,955.1376146788992,-247.5229357798165,-281.1926605504587,,
1760462393.9141936,564,-0.5533846153846155,1.6960879120879122,165.80696703296704,220.8091603053435,-113.34351145038168,1.9465648854961832,1013.8532110091744,-153.57798165137615,-257.70642201834863,,
1760462393.9972484,565,-0.5605714285714286,1.5451648351648353,165.76384615384617,244.25954198473283,-107.48091603053436,1.9465648854961832,1248.7155963302753,-200.5504587155963,-234.2201834862385,,
1760462394.007826,566,-0.574945054945055,1.7607692307692309,165.7782197802198,236.44274809160305,-111.38931297709924,1.9465648854961832,1307.4311926605506,-200.5504587155963,-234.2201834862385,,
1760462394.0286748,567,-0.5605714285714286,1.7751428571428571,167.68272527472527,222.763358778626,-123.1145038167939,1.9465648854961832,1366.1467889908258,-177.06422018348624,-234.2201834862385,,
1760462394.0598426,568,-0.7186813186813188,1.573912087912088,149.226989010989,240.35114503816797,-115.29770992366412,1.9465648854961832,1424.8623853211009,-177.06422018348624,-281.1926605504587,,
1760462394.0702884,569,-0.6324395604395605,1.7032747252747251,154.6602197802198,234.4885496183206,-115.29770992366412,1.9465648854961832,1483.577981651376,-153.57798165137615,-234.2201834862385,,
1760462394.0911794,570,-0.6108791208791209,1.6745274725274726,154.73927472527475,240.35114503816797,-128.9770992366412,1.9465648854961832,1542.2935779816514,-177.06422018348624,-257.70642201834863,,
1760462394.1016378,571,-0.539010989010989,1.7535824175824175,147.29373626373626,234.4885496183206,-117.25190839694656,1.9465648854961832,1601.0091743119265,-224.0366972477064,-234.2201834862385,,
1760462394.1225033,572,-0.6108791208791209,1.6601538461538463,165.85727472527475,236.44274809160305,-121.16030534351144,1.9465648854961832,1659.7247706422015,-200.5504587155963,-257.70642201834863,,
1760462394.237852,573,-0.4168351648351648,1.5451648351648353,158.41892307692308,218.85496183206104,-107.48091603053436,1.9465648854961832,2012.0183486238527,-153.57798165137615,-234.2201834862385,,
1760462394.2483876,574,-0.6180659340659341,1.6673406593406594,165.66323076923078,236.44274809160305,-109.4351145038168,1.9465648854961832,2070.733944954128,-224.0366972477064,-234.2201834862385,,
1760462394.2694042,575,-0.654,1.7751428571428571,154.70334065934068,238.3969465648855,-109.4351145038168,1.9465648854961832,2129.4495412844035,-200.5504587155963,-281.1926605504587,,
1760462394.3314748,576,-0.5677582417582419,1.7463956043956046,156.64378021978024,244.25954198473283,-103.57251908396948,1.9465648854961832,2305.5963302752293,-153.57798165137615,-257.70642201834863,,
1760462394.3627136,577,-0.654,1.7535824175824175,158.40454945054947,240.35114503816797,-115.29770992366412,1.9465648854961832,2364.3119266055046,-153.57798165137615,-210.7339449541284,,
1760462394.3731976,578,-0.7258681318681319,1.7823296703296705,152.8778901098901,228.6259541984733,-113.34351145038168,1.9465648854961832,2423.02752293578,-177.06422018348624,-257.70642201834863,,
1760462394.3948703,579,-0.6252527472527473,1.6026593406593408,162.0698241758242,244.25954198473283,-125.06870229007632,1.9465648854961832,2481.743119266055,-153.57798165137615,-281.1926605504587,,
1760462394.4367676,580,-0.6036923076923078,1.7104615384615385,151.00213186813187,236.44274809160305,-107.48091603053436,1.9465648854961832,2599.174311926605,-177.06422018348624,-187.24770642201835,,
1760462394.4888587,581,-0.5677582417582419,1.6385934065934065,161.98358241758245,248.1679389312977,-117.25190839694656,1.9465648854961832,2775.321100917431,-177.06422018348624,-257.70642201834863,,
1760462394.52026,582,-0.5102637362637363,1.6242197802197802,156.59347252747253,246.21374045801528,-109.4351145038168,1.9465648854961832,2834.0366972477063,-200.5504587155963,-281.1926605504587,,
1760462394.5307572,583,-0.6108791208791209,1.609846153846154,162.1273186813187,246.21374045801528,-117.25190839694656,1.9465648854961832,2892.7522935779816,-153.57798165137615,-234.2201834862385,,
1760462394.5622292,584,-0.5030769230769231,1.7607692307692309,152.94257142857143,236.44274809160305,-115.29770992366412,1.9465648854961832,2951.467889908257,-200.5504587155963,-257.70642201834863,,
1760462394.5832086,585,-0.5174505494505495,1.724835164835165,147.3081098901099,234.4885496183206,-109.4351145038168,1.9465648854961832,-2943.5779816513764,-153.57798165137615,-234.2201834862385,,
1760462394.614431,586,-0.4887032967032967,1.7320219780219783,167.64679120879123,238.3969465648855,-109.4351145038168,1.9465648854961832,-2884.862385321101,-177.06422018348624,-281.1926605504587,,
1760462394.6248405,587,-0.6611868131868132,1.7032747252747251,167.59648351648352,232.53435114503816,-119.206106870229,1.9465648854961832,-2826.146788990826,-224.0366972477064,-234.2201834862385,,
1760462394.6455748,588,-0.6396263736263736,1.7032747252747251,156.47848351648352,242.3053435114504,-107.48091603053436,1.9465648854961832,-2767.4311926605506,-106.60550458715596,-210.7339449541284,,
1760462394.6770794,589,-0.5533846153846155,1.6026593406593408,160.22281318681317,246.21374045801528,-115.29770992366412,1.9465648854961832,-2708.7155963302757,-200.5504587155963,-304.6788990825688,,
1760462394.6877143,590,-0.5821318681318681,1.566725274725275,162.13450549450553,226.67175572519085,-119.206106870229,1.9465648854961832,-2650.0,-130.09174311926606,-257.70642201834863,,
1760462394.7086248,591,-0.5174505494505495,1.5954725274725277,162.15606593406596,228.6259541984733,-123.1145038167939,1.9465648854961832,-2591.2844036697247,-153.57798165137615,-281.1926605504587,,
1760462394.7397385,592,-0.6468131868131869,1.6960879120879122,152.7629010989011,234.4885496183206,-119.206106870229,1.9465648854961832,-2473.853211009174,-177.06422018348624,-210.7339449541284,,
1760462394.77077,593,-0.6611868131868132,1.7823296703296705,156.5144175824176,238.3969465648855,-125.06870229007632,1.9465648854961832,-2415.137614678899,-247.5229357798165,-304.6788990825688,,
1760462394.7811904,594,-0.654,1.5810989010989014,156.65096703296703,226.67175572519085,-115.29770992366412,1.9465648854961832,-2356.422018348624,-177.06422018348624,-281.1926605504587,,
1760462394.801977,595,-0.5318241758241758,1.631406593406593,162.09857142857146,236.44274809160305,-115.29770992366412,1.9465648854961832,-2297.706422018349,-177.06422018348624,-281.1926605504587,,
1760462394.8645525,596,-0.6827472527472528,1.7823296703296705,158.40454945054947,234.4885496183206,-123.1145038167939,1.9465648854961832,-2121.559633027523,-153.57798165137615,-210.7339449541284,,
1760462394.875218,597,-0.5533846153846155,1.6457802197802198,158.44767032967033,-246.24427480916032,-109.4351145038168,1.9465648854961832,-2062.844036697248,-200.5504587155963,-210.7339449541284,,
1760462394.8962295,598,-0.6036923076923078,1.7895164835164834,169.4434945054945,234.4885496183206,-115.29770992366412,1.9465648854961832,-2004.1284403669724,-177.06422018348624,-257.70642201834863,,
1760462394.9277675,599,-0.4671428571428571,1.688901098901099,158.27518681318682,230.5801526717557,-117.25190839694656,1.9465648854961832,-1945.4128440366967,-153.57798165137615,-257.70642201834863,,
1760462394.9383802,600,-0.6324395604395605,1.7463956043956046,163.95995604395603,230.5801526717557,-115.29770992366412,1.9465648854961832,-1886.6972477064216,-177.06422018348624,-257.70642201834863,,
1760462394.9600625,601,-0.6324395604395605,1.6745274725274726,154.7105274725275,220.8091603053435,-127.02290076335878,1.9465648854961832,-1827.9816513761468,-224.0366972477064,-234.2201834862385,,
1760462394.9915504,602,-0.6252527472527473,1.7751428571428571,156.5287912087912,240.35114503816797,-107.48091603053436,1.9465648854961832,-1769.2660550458716,-177.06422018348624,-257.70642201834863,,
1760462395.0021317,603,-0.6252527472527473,1.7751428571428571,160.22281318681317,242.3053435114504,-121.16030534351144,1.9465648854961832,-1710.5504587155965,-177.06422018348624,-210.7339449541284,,
1760462395.0230987,604,-0.6180659340659341,1.7392087912087917,156.59347252747253,240.35114503816797,-121.16030534351144,1.9465648854961832,-1593.1192660550455,-153.57798165137615,-234.2201834862385,,
1760462395.0543962,605,-0.6108791208791209,1.7032747252747251,154.7105274725275,230.5801526717557,-119.206106870229,1.9465648854961832,-1534.403669724771,-177.06422018348624,-234.2201834862385,,
1760462395.0857956,606,-0.6036923076923078,1.6745274725274726,167.55336263736265,236.44274809160305,-119.206106870229,1.9465648854961832,-1475.6880733944954,-224.0366972477064,-234.2201834862385,,
1760462395.096291,607,-0.6036923076923078,1.7176483516483516,167.56054945054944,244.25954198473283,-121.16030534351144,1.9465648854961832,-1416.97247706422,-177.06422018348624,-257.70642201834863,,
1760462395.1482477,608,-0.6396263736263736,1.7032747252747251,158.29674725274725,246.21374045801528,-117.25190839694656,1.9465648854961832,-1299.5412844036696,-200.5504587155963,-234.2201834862385,,
1760462395.1588593,609,-0.5677582417582419,1.7032747252747251,158.35424175824176,232.53435114503816,-125.06870229007632,1.9465648854961832,-1240.8256880733943,-177.06422018348624,-210.7339449541284,,
1760462395.1799066,610,-0.6396263736263736,1.6817142857142855,169.40037362637364,228.6259541984733,-125.06870229007632,1.9465648854961832,-1182.1100917431193,-224.0366972477064,-281.1926605504587,,
1760462395.252332,611,-0.5965054945054945,1.688901098901099,149.14074725274725,246.21374045801528,-121.16030534351144,1.9465648854961832,-1005.9633027522935,-200.5504587155963,-234.2201834862385,,
1760462395.2627954,612,-0.6611868131868132,1.5882857142857143,163.9168351648352,242.3053435114504,-111.38931297709924,1.9465648854961832,-947.2477064220184,-177.06422018348624,-234.2201834862385,,
