timestamp,packet_id,accel_x,accel_y,accel_z,gyro_x,gyro_y,gyro_z,mag_x,mag_y,mag_z,battery
1760115236.5270076,0,1.4014285714285717,69.91331868131869,27.539868131868133,14.748091603053435,17.603053435114504,9.816793893129772,-1806.9724770642204,-914.3119266055044,-1643.577981651376,0.0
1760115236.5384142,1,1.3798681318681318,-165.58417582417584,27.55424175824176,16.213740458015266,17.022900763358777,9.625954198473282,2302.844036697248,-2793.211009174312,-23.119266055045877,0.0
1760115236.548761,2,1.4086153846153846,69.91331868131869,27.5758021978022,16.099236641221374,16.64885496183206,9.618320610687023,2466.97247706422,517.8899082568807,-141.0091743119266,0.0
1760115236.5590644,3,1.4445494505494507,-165.58417582417584,27.590175824175823,16.045801526717558,16.870229007633586,9.541984732824428,-1549.8165137614678,682.3853211009174,-2747.889908256881,0.0
1760115236.5694363,4,1.4301758241758245,69.91331868131869,27.61173626373627,16.114503816793892,17.03053435114504,9.687022900763358,1667.981651376147,2420.275229357798,2583.577981651376,0.0
1760115236.5797296,5,1.451736263736264,-165.58417582417584,27.62610989010989,16.16793893129771,16.931297709923665,9.725190839694656,-2864.862385321101,800.2752293577983,-1596.605504587156,0.0
1760115236.5900636,6,1.4301758241758245,69.91331868131869,27.647670329670333,16.580152671755727,16.748091603053435,9.763358778625957,47.70642201834863,2985.5045871559632,1926.3302752293573,0.0
1760115236.6004848,7,1.4086153846153846,-165.58417582417584,27.66204395604396,17.015267175572518,16.770992366412212,9.885496183206106,987.2477064220184,495.5963302752294,1010.2752293577984,0.0
1760115236.6108422,8,1.458923076923077,69.91331868131869,27.6836043956044,17.35114503816794,16.65648854961832,9.84732824427481,-140.0,-421.65137614678895,94.40366972477064,0.0
1760115236.621284,9,1.494857142857143,-165.58417582417584,27.697978021978024,17.519083969465647,16.671755725190838,9.709923664122137,-1032.8440366972477,-2019.5412844036696,1080.5504587155965,0.0
1760115236.6316996,10,1.4804835164835164,69.91331868131869,27.719538461538463,17.00763358778626,16.595419847328245,9.557251908396946,1902.6605504587155,-2936.146788990826,-680.9174311926606,0.0
1760115236.6420555,11,1.5020439560439562,-165.58417582417584,27.73391208791209,16.801526717557252,16.396946564885496,9.51908396946565,2724.4036697247707,-1197.798165137615,2842.3853211009173,0.0
1760115236.65246,12,1.5020439560439562,69.91331868131869,27.75547252747253,17.0381679389313,16.450381679389313,9.64885496183206,-187.88990825688077,1972.844036697248,1480.091743119266,0.0
1760115236.662924,13,1.5164175824175825,-165.58417582417584,27.76984615384616,16.916030534351144,16.47328244274809,9.610687022900764,-2700.3669724770643,2325.0458715596333,893.1192660550458,0.0
1760115236.6733537,14,1.4876703296703295,69.91331868131869,27.791406593406595,17.0381679389313,16.18320610687023,9.51908396946565,-281.5596330275229,-422.7522935779817,-1901.3761467889908,0.0
1760115236.6838045,15,1.5236043956043956,-165.58417582417584,27.80578021978022,17.34351145038168,16.389312977099237,9.770992366412214,962.9357798165138,-1878.623853211009,-1502.9357798165138,0.0
1760115236.6943562,16,1.5164175824175825,69.91331868131869,27.827340659340663,16.763358778625953,15.83206106870229,9.9618320610687,-117.52293577981652,-94.03669724770644,-845.2293577981651,0.0
1760115236.7049243,17,1.5595384615384615,-165.58417582417584,27.84171428571429,16.748091603053435,16.0381679389313,10.122137404580153,2348.990825688073,164.12844036697248,-2019.816513761468,0.0
1760115236.7260425,18,1.5523516483516484,69.91331868131869,27.863274725274728,16.83969465648855,15.908396946564883,10.0,1080.6422018348624,586.6055045871559,2512.935779816514,0.0
1760115236.7471824,19,1.5954725274725277,-165.58417582417584,27.877648351648357,16.923664122137403,16.106870229007633,9.48091603053435,-2935.9633027522937,-1386.422018348624,2348.532110091743,0.0
1760115236.7579527,20,1.5810989010989014,69.91331868131869,27.899208791208792,16.793893129770993,16.34351145038168,9.198473282442748,-2607.6146788990827,1737.5229357798166,-681.2844036697248,0.0
1760115236.779281,21,1.6242197802197802,-165.58417582417584,27.91358241758242,16.916030534351144,16.625954198473284,8.778625954198473,-2748.8990825688074,-2114.1284403669724,-2019.9082568807337,0.0
1760115236.790094,22,1.6385934065934065,69.91331868131869,27.93514285714286,16.984732824427482,16.778625954198475,8.83206106870229,-2185.5045871559632,-1949.4495412844035,2959.1743119266057,0.0
1760115236.8112893,23,1.6457802197802198,-165.58417582417584,27.949516483516486,17.03053435114504,17.0381679389313,9.297709923664122,1360.9174311926604,-1385.8715596330276,-281.92660550458714,0.0
1760115236.8220766,24,1.5954725274725277,69.91331868131869,27.971076923076925,16.9618320610687,17.015267175572518,9.580152671755725,-752.4770642201835,-2607.1559633027523,-1338.8073394495414,0.0
1760115236.8538682,25,1.5810989010989014,-165.58417582417584,27.98545054945055,16.885496183206108,16.625954198473284,10.251908396946565,2746.880733944954,2090.091743119266,446.1467889908257,0.0
1760115236.864532,26,1.537978021978022,69.91331868131869,28.00701098901099,16.793893129770993,16.69465648854962,9.98473282442748,-541.743119266055,-399.908256880734,-2888.8990825688074,0.0
1760115236.8858752,27,1.5595384615384615,-165.58417582417584,28.02138461538462,16.755725190839694,16.946564885496183,9.511450381679388,2910.8256880733943,2653.669724770642,1667.4311926605506,0.0
1760115236.9071622,28,1.5020439560439562,69.91331868131869,28.042945054945054,16.80916030534351,17.267175572519083,9.66412213740458,2793.394495412844,2747.706422018349,422.7522935779817,0.0
1760115236.9178672,29,1.4732967032967033,-165.58417582417584,28.057318681318684,16.66412213740458,17.374045801526716,9.48091603053435,-2444.2201834862385,117.24770642201834,1691.0091743119267,0.0
1760115236.9391632,30,1.4373626373626376,69.91331868131869,28.07887912087912,16.587786259541986,17.480916030534353,9.419847328244275,-2726.238532110092,-1479.908256880734,-2419.08256880734,0.0
1760115236.9710014,31,1.4373626373626376,-165.58417582417584,28.09325274725275,16.53435114503817,17.65648854961832,9.488549618320612,913.577981651376,-446.3302752293578,-234.86238532110093,0.0
1760115236.981712,32,1.3726813186813187,69.91331868131869,28.114813186813187,16.541984732824428,17.778625954198475,9.908396946564883,-1223.8532110091744,1150.9174311926606,634.2201834862385,0.0
1760115237.0029824,33,1.2792527472527473,-165.58417582417584,28.129186813186816,16.53435114503817,17.862595419847327,9.97709923664122,-2234.1284403669724,2982.568807339449,-1714.4954128440368,0.0
1760115237.0347724,34,69.91331868131869,28.15074725274725,15.602571428571428,17.938931297709924,9.893129770992369,-70.61068702290076,1362.2935779816514,-1878.8990825688077,-25.779816513761467,0.0
1760115237.0453904,35,-165.58417582417584,28.16512087912088,15.638505494505496,18.267175572519083,10.419847328244275,-88.16030534351145,211.4678899082569,1855.4128440366972,-25.321100917431195,0.0
1760115237.0665047,36,69.91331868131869,28.18668131868132,15.789428571428571,18.77099236641221,10.526717557251908,17.396946564885496,2254.8623853211006,140.91743119266056,-26.238532110091743,0.0
1760115237.0771997,37,-165.58417582417584,28.201054945054945,15.868483516483517,19.16793893129771,10.67175572519084,-138.93893129770993,-2560.183486238532,822.0183486238533,-25.137614678899084,0.0
1760115237.0983157,38,69.91331868131869,28.222615384615384,15.767868131868132,19.46564885496183,10.312977099236642,150.206106870229,-1879.1743119266052,2043.48623853211,-25.504587155963304,0.0
1760115237.1298263,39,-165.58417582417584,28.236989010989014,15.875670329670331,19.541984732824428,10.82442748091603,-232.8091603053435,0.0,-164.12844036697248,-25.321100917431195,0.0
1760115237.1404822,40,69.91331868131869,28.25854945054945,15.9690989010989,19.435114503816795,11.267175572519085,-15.80916030534351,-328.89908256880733,-93.76146788990826,-25.504587155963304,0.0
1760115237.1615274,41,-165.58417582417584,28.27292307692308,15.918791208791207,19.38931297709924,11.381679389312977,-5.977099236641221,-188.1651376146789,-493.2110091743119,-25.68807339449541,0.0
1760115237.192948,42,69.91331868131869,28.29448351648352,15.947538461538462,19.3587786259542,11.3206106870229,-134.83969465648855,187.88990825688077,-634.3119266055046,-26.055045871559635,0.0
1760115237.203475,43,-165.58417582417584,28.308857142857143,15.947538461538462,19.61832061068702,11.34351145038168,136.83969465648855,2137.064220183486,-141.19266055045873,-25.963302752293576,0.0
1760115237.224572,44,69.91331868131869,28.330417582417585,15.911604395604396,19.709923664122137,11.297709923664122,46.96946564885496,-657.9816513761468,1526.422018348624,-25.59633027522936,0.0
1760115237.255999,45,-165.58417582417584,28.34479120879121,15.861296703296704,19.49618320610687,11.297709923664122,-54.61068702290076,-0.5504587155963303,2254.4036697247707,-25.504587155963304,0.0
1760115237.2666326,46,69.91331868131869,28.36635164835165,15.753494505494508,19.33587786259542,11.091603053435117,-103.38167938931298,2254.1284403669724,-611.1009174311927,-25.045871559633028,0.0
1760115237.2879183,47,-165.58417582417584,28.380725274725275,15.746307692307694,19.267175572519083,10.877862595419847,-224.4580152671756,-2067.064220183486,539.7247706422019,-24.587155963302752,0.0
1760115237.31955,48,69.91331868131869,28.402285714285718,15.638505494505496,19.03053435114504,10.64885496183206,125.3969465648855,-0.1834862385321101,-1785.4128440366974,-24.31192660550459,0.0
1760115237.3302276,49,-165.58417582417584,28.41665934065934,15.58101098901099,18.7175572519084,10.244274809160306,232.8702290076336,1479.4495412844035,2888.532110091743,-24.4954128440367,0.0
1760115237.3514245,50,69.91331868131869,28.438219780219782,15.588197802197802,18.52671755725191,10.229007633587786,-32.85496183206107,-2184.3119266055046,657.4311926605506,-24.587155963302752,0.0
1760115237.3621154,51,-165.58417582417584,28.452593406593408,15.573824175824177,18.18320610687023,10.114503816793894,-15.19083969465649,-2654.1284403669724,-2630.642201834862,-24.12844036697248,0.0
1760115237.3831716,52,69.91331868131869,28.474153846153847,15.386967032967034,17.64885496183206,9.709923664122137,176.34351145038167,2559.633027522936,2818.3486238532114,-24.31192660550459,0.0
1760115237.3938992,53,1.3798681318681318,-165.58417582417584,28.488527472527476,16.328244274809162,17.015267175572518,9.35114503816794,-1286.697247706422,234.5871559633028,1925.9633027522932,0.0
1760115237.4149885,54,1.451736263736264,69.91331868131869,28.51008791208791,16.38167938931298,16.641221374045802,9.442748091603054,802.9357798165137,2019.7247706422015,1056.97247706422,0.0
1760115237.4463089,55,1.566725274725275,-165.58417582417584,28.524461538461537,16.328244274809162,16.213740458015266,9.50381679389313,-2227.798165137615,2207.3394495412845,1362.2935779816514,0.0
1760115237.4567952,56,1.617032967032967,69.91331868131869,28.54602197802198,15.931297709923664,16.00763358778626,9.122137404580153,1060.6422018348624,-141.3761467889908,1761.1926605504586,0.0
1760115237.477769,57,1.6673406593406594,-165.58417582417584,28.560395604395605,16.3206106870229,15.702290076335878,9.572519083969466,1554.0366972477066,-1010.3669724770642,352.38532110091745,0.0
1760115237.4885066,58,1.6817142857142855,69.91331868131869,28.581956043956044,16.549618320610687,15.17557251908397,8.725190839694656,1623.8532110091744,-1785.3211009174313,1056.97247706422,0.0
1760115237.5097055,59,1.724835164835165,-165.58417582417584,28.59632967032967,16.3206106870229,15.0,9.244274809160306,2186.05504587156,-1338.440366972477,2113.853211009174,0.0
1760115237.5411706,60,1.6960879120879122,69.91331868131869,28.61789010989011,16.35114503816794,14.9618320610687,9.549618320610689,2843.394495412844,1644.4954128440368,446.3302752293578,0.0
1760115237.551918,61,1.7176483516483516,-165.58417582417584,28.63226373626373,16.458015267175572,14.755725190839694,9.511450381679388,-891.1926605504588,611.0091743119266,-469.72477064220186,0.0
1760115237.5731485,62,1.7032747252747251,69.91331868131869,28.653824175824177,16.458015267175572,14.732824427480915,9.587786259541986,1856.422018348624,2161.0091743119265,-2959.1743119266057,0.0
1760115237.594433,63,1.7104615384615385,-165.58417582417584,28.668197802197803,16.52671755725191,14.66412213740458,9.66412213740458,1269.2660550458716,1996.605504587156,1925.9633027522932,0.0
1760115237.6051512,64,1.6817142857142855,69.91331868131869,28.68975824175824,16.519083969465647,14.564885496183209,9.63358778625954,-1196.97247706422,-1667.4311926605506,-1784.8623853211009,0.0
1760115237.6263204,65,1.7032747252747251,-165.58417582417584,28.704131868131867,16.52671755725191,14.427480916030534,9.51908396946565,-2277.522935779816,610.8256880733945,2630.550458715596,0.0
1760115237.6576474,66,1.7104615384615385,69.91331868131869,28.725692307692302,16.49618320610687,14.32824427480916,9.50381679389313,235.1376146788991,1808.6238532110087,2818.440366972477,0.0
1760115237.668363,67,1.6745274725274726,-165.58417582417584,28.74006593406593,16.47328244274809,14.381679389312977,9.687022900763358,775.3211009174312,-2747.706422018349,-1385.596330275229,0.0
1760115237.6895683,68,1.7032747252747251,69.91331868131869,28.76162637362637,16.519083969465647,14.412213740458014,9.64885496183206,2818.7155963302757,2724.587155963303,2888.8990825688074,0.0
1760115237.7002132,69,1.688901098901099,-165.58417582417584,28.776,16.557251908396946,14.274809160305344,9.526717557251908,-117.43119266055048,1244.8623853211009,-2372.0183486238534,0.0
1760115237.7214558,70,1.6817142857142855,69.91331868131869,28.79756043956044,16.572519083969464,14.259541984732824,9.419847328244275,1361.926605504587,-2677.2477064220184,-822.0183486238533,0.0
1760115237.7533207,71,1.6745274725274726,-165.58417582417584,28.811934065934064,16.572519083969464,14.183206106870228,9.13740458015267,2511.834862385321,1198.2568807339449,-634.2201834862385,0.0
1760115237.7640295,72,1.7032747252747251,69.91331868131869,28.83349450549451,16.625954198473284,14.49618320610687,9.458015267175572,92.4770642201835,-2160.183486238532,1009.8165137614678,0.0
1760115237.785251,73,1.6673406593406594,-165.58417582417584,28.847868131868136,16.68702290076336,14.83206106870229,9.534351145038167,-893.5779816513761,-2136.697247706422,1949.1743119266052,0.0
1760115237.8168845,74,1.609846153846154,69.91331868131869,28.86942857142857,16.801526717557252,14.80916030534351,9.435114503816791,45.3211009174312,-2183.853211009174,1174.1284403669729,0.0
1760115237.8274407,75,1.6673406593406594,-165.58417582417584,28.8838021978022,16.740458015267176,14.877862595419847,9.251908396946565,-800.7339449541284,634.5871559633027,-2889.1743119266057,0.0
1760115237.848415,76,1.6457802197802198,69.91331868131869,28.90536263736264,16.83206106870229,15.244274809160306,9.183206106870228,-1295.045871559633,2137.6146788990827,-963.394495412844,0.0
1760115237.8587744,77,1.6026593406593408,-165.58417582417584,28.91973626373627,16.938931297709924,15.641221374045802,9.427480916030534,1099.0825688073394,-1550.2752293577985,-1503.394495412844,0.0
1760115237.8794508,78,1.566725274725275,69.91331868131869,28.941296703296707,16.717557251908396,16.015267175572518,9.473282442748092,2954.4954128440368,-2818.3486238532114,-775.2293577981652,0.0
1760115237.9108002,79,1.5164175824175825,-165.58417582417584,28.955670329670333,16.80916030534351,16.282442748091604,9.580152671755725,958.6238532110092,-2583.302752293578,-1150.9174311926606,0.0
1760115237.9214897,80,1.422989010989011,69.91331868131869,28.97723076923077,16.885496183206108,16.732824427480917,9.83206106870229,2650.2752293577983,-2465.779816513761,-798.5321100917431,0.0
1760115237.942887,81,1.3798681318681318,-165.58417582417584,28.9916043956044,16.862595419847327,17.068702290076335,9.66412213740458,-1929.633027522936,-2653.9449541284407,-2747.706422018349,0.0
1760115237.9746294,82,1.2792527472527473,69.91331868131869,29.01316483516484,16.954198473282442,17.557251908396946,9.80916030534351,-1507.2477064220184,1996.422018348624,-1643.6697247706422,0.0
1760115237.985398,83,1.200197802197802,-165.58417582417584,29.027538461538462,16.96946564885496,17.885496183206108,9.99236641221374,2226.788990825688,-2536.697247706422,164.95412844036696,0.0
1760115238.006704,84,1.1211428571428572,69.91331868131869,29.049098901098905,16.84732824427481,18.198473282442748,10.068702290076336,-2823.394495412844,2865.045871559633,2302.3853211009177,0.0
1760115238.017403,85,-165.58417582417584,29.06347252747253,15.961912087912088,18.41221374045801,10.534351145038167,-223.21374045801528,2418.8990825688074,-821.0091743119266,-27.431192660550455,0.0
1760115238.0387766,86,69.91331868131869,29.08503296703297,16.040967032967032,18.595419847328245,10.702290076335878,234.1679389312977,2301.467889908257,-1173.577981651376,-27.79816513761468,0.0
1760115238.0705023,87,-165.58417582417584,29.099406593406595,16.0769010989011,18.83206106870229,10.740458015267176,-209.33587786259545,-587.4311926605504,423.2110091743119,-27.79816513761468,0.0
1760115238.0812106,88,69.91331868131869,29.120967032967037,15.89723076923077,19.267175572519083,10.80916030534351,144.31297709923663,445.7798165137615,799.1743119266056,-27.79816513761468,0.0
1760115238.102518,89,-165.58417582417584,29.135340659340663,15.933164835164837,19.85496183206107,11.01526717557252,-176.26717557251908,1737.4311926605503,-2958.1651376146788,-27.79816513761468,0.0
1760115238.113279,90,69.91331868131869,29.156901098901105,15.997846153846154,20.053435114503817,11.48091603053435,71.90076335877863,891.8348623853211,-2253.394495412844,-27.981651376146782,0.0
1760115238.1345484,91,-165.58417582417584,29.171274725274728,16.199076923076923,20.30534351145038,11.84732824427481,107.1145038167939,-1292.5688073394494,-2957.9816513761466,-28.440366972477065,0.0
1760115238.1663475,92,69.91331868131869,29.192835164835166,16.29969230769231,20.09923664122137,11.908396946564883,-6.137404580152672,-540.9174311926606,-492.29357798165137,-28.623853211009177,0.0
1760115238.1771228,93,-57.681362637362646,-69.80551648351648,160.1221978021978,113.41984732824427,-42.94656488549618,-10.969465648854962,155.77981651376146,-1442.201834862385,2982.568807339449,0.0
1760115238.1984334,94,-53.081802197802205,-60.60639560439561,178.52043956043957,138.82442748091603,-23.404580152671755,-7.129770992366412,83.39449541284404,-1369.1743119266057,-2748.0733944954127,0.0
1760115238.2197766,95,-48.48224175824176,-60.60639560439561,193.23903296703295,162.27480916030535,-11.6793893129771,-3.0076335877862594,69.72477064220183,-1307.9816513761468,-2795.045871559633,0.0
1760115238.23061,96,-43.88268131868132,-53.24709890109891,224.516043956044,175.95419847328245,-5.816793893129771,-2.8473282442748094,19.449541284403672,-1540.275229357798,-2842.0183486238534,0.0
1760115238.2520006,97,-39.28312087912088,-71.64534065934066,231.87534065934068,142.73282442748092,3.954198473282443,-0.2824427480916031,-44.95412844036697,-1569.3577981651376,-2677.6146788990827,0.0
1760115238.2839105,98,-34.68356043956044,-73.48516483516484,-198.6435164835165,158.36641221374046,9.816793893129772,-2.977099236641221,-56.23853211009175,-1358.6238532110092,-2748.0733944954127,0.0
1760115238.2946055,99,-30.084000000000003,-75.32498901098901,-213.3621098901099,136.87022900763358,17.633587786259543,-3.480916030534351,-92.6605504587156,-1241.0091743119265,-2701.100917431193,0.0
1760115238.3159945,100,-25.48443956043956,-99.2427032967033,-226.24087912087916,144.68702290076337,23.49618320610687,-6.183206106870229,-113.94495412844036,-1311.559633027523,-2748.0733944954127,0.0
1760115238.3267488,101,-20.884879120879123,-125.00024175824176,217.15674725274727,70.42748091603053,29.3587786259542,-5.916030534351145,-148.25688073394497,-1416.3302752293578,-2654.1284403669724,0.0
1760115238.3480916,102,-16.28531868131868,-132.35953846153848,156.44254945054945,82.1526717557252,41.083969465648856,-4.465648854961832,-209.5412844036697,-943.211009174312,-2865.5045871559632,0.0
1760115238.3799276,103,-11.685758241758242,-137.879010989011,128.8451868131868,43.06870229007634,54.76335877862596,-7.5038167938931295,-254.6788990825688,-1052.7522935779816,-2935.9633027522937,0.0
1760115238.3906112,104,69.91331868131869,29.40843956043956,15.94035164835165,20.12213740458015,11.610687022900764,113.57251908396948,-1761.8348623853212,1267.2477064220184,-27.522935779816518,0.0
1760115238.4119277,105,-165.58417582417584,29.422813186813187,15.890043956043955,20.09923664122137,11.511450381679388,209.3664122137405,-2466.5137614678897,2347.5229357798166,-26.69724770642202,0.0
1760115238.4331548,106,69.91331868131869,29.44437362637363,15.731934065934068,19.908396946564885,11.16030534351145,217.21374045801528,1432.1100917431193,-1480.8256880733943,-25.871559633027523,0.0
1760115238.4439423,107,-165.58417582417584,29.45874725274725,15.545076923076923,19.908396946564885,10.877862595419847,203.50381679389312,2536.146788990826,1549.0825688073394,-24.770642201834864,0.0
1760115238.4652257,108,69.91331868131869,29.480307692307694,15.530703296703296,19.595419847328245,10.66412213740458,-154.15267175572518,-1339.1743119266057,1196.97247706422,-24.678899082568808,0.0
1760115238.5075436,109,-165.58417582417584,29.49468131868132,15.638505494505496,19.106870229007637,10.618320610687023,-195.12213740458012,-2207.9816513761466,-24.587155963302752,-23.669724770642205,0.0
1760115238.5182717,110,69.91331868131869,29.51624175824176,15.437274725274726,18.78625954198473,10.725190839694656,-9.358778625954198,-1479.7247706422015,-2866.697247706422,-23.761467889908257,0.0
1760115238.539569,111,-165.58417582417584,29.530615384615384,15.4229010989011,18.564885496183205,10.50381679389313,246.68702290076337,1409.2660550458716,1877.4311926605503,-23.30275229357798,0.0
1760115238.5712917,112,69.91331868131869,29.552175824175823,15.28635164835165,18.137404580152676,10.068702290076336,-132.4351145038168,2982.293577981652,-1246.2385321100917,-23.119266055045877,0.0
1760115238.5819588,113,-165.58417582417584,29.56654945054945,15.200109890109893,17.6793893129771,9.793893129770993,76.67175572519083,1079.2660550458716,-658.8990825688073,-22.568807339449545,0.0
1760115238.592632,114,1.0995824175824176,69.91331868131869,29.58810989010989,15.969465648854962,17.374045801526716,9.473282442748092,-65.22935779816514,1923.9449541284405,2676.5137614678897,0.0
1760115238.603464,115,1.1714505494505496,-165.58417582417584,29.60248351648352,15.740458015267176,16.900763358778626,9.244274809160306,-1428.440366972477,1431.0091743119265,-916.605504587156,0.0
1760115238.635166,116,1.2720659340659342,69.91331868131869,29.624043956043955,15.65648854961832,16.49618320610687,9.404580152671755,-2814.4036697247707,820.6422018348624,-329.35779816513764,0.0
1760115238.6457682,117,1.3870549450549452,-165.58417582417584,29.638417582417585,15.557251908396946,16.099236641221374,9.458015267175572,-2109.3577981651374,-353.85321100917434,-2419.633027522936,0.0
1760115238.6670384,118,1.3654945054945056,69.91331868131869,29.659978021978024,15.30534351145038,15.625954198473282,9.412213740458014,-1592.9357798165138,2464.5871559633024,117.06422018348624,0.0
1760115238.6777384,119,1.4158021978021975,-165.58417582417584,29.67435164835165,15.053435114503817,15.068702290076336,8.83206106870229,-2534.1284403669724,821.1009174311928,-1151.0091743119267,0.0
1760115238.6990068,120,1.3798681318681318,69.91331868131869,29.695912087912088,15.13740458015267,15.061068702290076,9.274809160305344,-2535.5045871559632,-2818.440366972477,-2912.477064220184,0.0
1760115238.730739,121,1.4373626373626376,-165.58417582417584,29.710285714285718,15.30534351145038,15.236641221374043,9.755725190839694,1786.697247706422,-1550.4587155963304,-1691.2844036697247,0.0
1760115238.741404,122,1.4301758241758245,69.91331868131869,29.731846153846156,15.19083969465649,14.885496183206106,9.32824427480916,-1924.4954128440363,821.743119266055,-2630.642201834862,0.0
1760115238.762805,123,1.4086153846153846,-165.58417582417584,29.746219780219786,15.17557251908397,14.770992366412214,9.374045801526718,564.4954128440367,1150.8256880733943,1409.0825688073394,0.0
1760115238.794423,124,1.4086153846153846,69.91331868131869,29.76778021978022,15.30534351145038,14.83969465648855,9.49618320610687,-2441.834862385321,1080.3669724770643,2395.5045871559632,0.0
1760115238.8051877,125,1.4445494505494507,-165.58417582417584,29.782153846153847,15.312977099236642,14.763358778625957,9.50381679389313,-680.0,-422.8440366972477,1573.48623853211,0.0
1760115238.8264382,126,1.4301758241758245,69.91331868131869,29.803714285714285,15.267175572519085,14.564885496183209,9.473282442748092,-2676.422018348624,1855.5045871559632,939.4495412844036,0.0
1760115238.8581223,127,1.4086153846153846,-165.58417582417584,29.81808791208791,15.251908396946565,14.49618320610687,9.641221374045802,-210.6422018348624,-399.1743119266055,-2207.706422018349,0.0
1760115238.869046,128,1.451736263736264,69.91331868131869,29.83964835164835,15.274809160305344,14.427480916030534,9.709923664122137,-2911.559633027523,2888.8990825688074,-2113.7614678899085,0.0
1760115238.8797448,129,1.4158021978021975,-165.58417582417584,29.85402197802198,15.236641221374043,14.290076335877863,9.603053435114504,1339.4495412844035,1644.1284403669729,-2466.05504587156,0.0
1760115238.9010184,130,1.4301758241758245,69.91331868131869,29.875582417582415,15.244274809160306,14.297709923664122,9.49618320610687,-2676.880733944954,2278.348623853211,-1479.633027522936,0.0
1760115238.9222648,131,1.4158021978021975,-165.58417582417584,29.889956043956044,15.274809160305344,14.290076335877863,9.51908396946565,1127.798165137615,1010.091743119266,1338.8073394495414,0.0
1760115238.9329977,132,1.422989010989011,69.91331868131869,29.911516483516483,15.34351145038168,14.267175572519085,9.549618320610689,423.302752293578,-140.73394495412842,892.5688073394494,0.0
1760115238.954188,133,1.422989010989011,-165.58417582417584,29.92589010989011,15.33587786259542,14.16030534351145,9.618320610687023,963.4862385321102,-2794.678899082569,986.5137614678898,0.0
1760115238.9858444,134,1.4086153846153846,69.91331868131869,29.94745054945055,15.33587786259542,14.068702290076336,9.63358778625954,-2535.9633027522937,-704.3119266055046,2513.119266055046,0.0
1760115238.9964776,135,1.3654945054945056,-165.58417582417584,29.961824175824177,15.381679389312977,14.091603053435117,9.65648854961832,-2371.743119266055,-2160.45871559633,-1385.596330275229,0.0
1760115239.0176663,136,1.3798681318681318,69.91331868131869,29.98338461538461,15.36641221374046,14.02290076335878,9.618320610687023,-2113.577981651376,986.697247706422,-2278.0733944954127,0.0
1760115239.0284982,137,1.3870549450549452,-165.58417582417584,29.99775824175824,15.32824427480916,13.916030534351146,9.427480916030534,2536.330275229357,1268.6238532110092,47.1559633027523,0.0
1760115239.0603032,138,1.3726813186813187,69.91331868131869,30.01931868131868,15.32824427480916,13.916030534351146,9.396946564885496,-775.7798165137615,775.5963302752294,-469.63302752293583,0.0
1760115239.0814738,139,1.3942417582417583,-165.58417582417584,30.033692307692306,15.389312977099236,14.030534351145038,9.404580152671755,-2466.97247706422,-2770.733944954128,2583.577981651376,0.0
1760115239.092167,140,1.3798681318681318,69.91331868131869,30.05525274725275,15.49618320610687,14.221374045801529,9.419847328244275,-1598.165137614679,1409.8165137614678,-2724.3119266055046,0.0
1760115239.1134207,141,1.3511208791208793,-165.58417582417584,30.069626373626377,15.541984732824428,14.236641221374043,9.374045801526718,-940.6422018348624,2772.0183486238534,-399.2660550458716,0.0
1760115239.1242402,142,1.3726813186813187,69.91331868131869,30.091186813186816,15.709923664122137,14.610687022900764,9.183206106870228,2604.8623853211006,2983.4862385321103,-2090.183486238532,0.0
1760115239.1453788,143,1.3295604395604397,-165.58417582417584,30.10556043956044,15.82442748091603,14.82442748091603,9.34351145038168,-1552.9357798165138,-610.0,-1784.7706422018348,0.0
1760115239.17707,144,1.308,69.91331868131869,30.127120879120884,15.877862595419847,15.045801526717558,9.404580152671755,1875.9633027522932,-1103.394495412844,-2818.0733944954127,0.0
1760115239.1877923,145,1.3223736263736263,-165.58417582417584,30.14149450549451,15.83969465648855,15.358778625954198,9.213740458015268,-1036.880733944954,-2747.5229357798166,-2888.440366972477,0.0
1760115239.2090237,146,1.2864395604395606,69.91331868131869,30.16305494505495,15.954198473282442,15.603053435114504,9.541984732824428,-1154.6788990825687,2842.293577981651,2466.5137614678897,0.0
1760115239.24075,147,1.264879120879121,-165.58417582417584,30.17742857142857,15.954198473282442,15.908396946564883,9.51908396946565,-920.091743119266,-2818.256880733945,118.07339449541286,0.0
1760115239.2514162,148,1.193010989010989,69.91331868131869,30.198989010989013,15.801526717557252,16.49618320610687,9.099236641221374,-1789.6330275229357,117.52293577981652,-1737.2477064220184,0.0
1760115239.2727172,149,1.1355164835164837,-165.58417582417584,30.21336263736264,15.801526717557252,17.015267175572518,9.396946564885496,2577.9816513761466,94.12844036697248,-2253.5779816513764,0.0
1760115239.2834003,150,1.0636483516483517,69.91331868131869,30.23492307692308,15.740458015267176,17.419847328244273,9.526717557251908,-1909.0825688073396,916.330275229358,-1360.4587155963304,0.0
1760115239.3046503,151,0.9774065934065936,-165.58417582417584,30.249296703296707,16.00763358778626,17.68702290076336,10.091603053435117,-405.2293577981652,1362.4770642201834,1974.770642201835,0.0
1760115239.3364112,152,0.8192967032967032,69.91331868131869,30.270857142857142,16.30534351145038,17.916030534351144,10.450381679389311,-1812.4770642201836,892.7522935779816,1598.3486238532112,0.0
1760115239.3471286,153,-5.526659340659341,163.74435164835165,0.0,231.8625954198473,136.91603053435114,-224.67175572519085,1456.97247706422,-1150.366972477064,-27.431192660550455,0.0
1760115239.3683712,154,69.91331868131869,30.30679120879121,15.24323076923077,18.946564885496183,10.526717557251908,-86.42748091603053,2700.642201834862,683.1192660550458,-24.220183486238533,0.0
1760115239.400113,155,-165.58417582417584,30.32116483516484,15.638505494505496,19.6412213740458,10.946564885496183,-240.8320610687023,-2044.6788990825687,2327.1559633027523,-24.95412844036697,0.0
1760115239.4108217,156,69.91331868131869,30.34272527472528,15.44446153846154,19.68702290076336,11.083969465648854,93.36641221374046,-1856.422018348624,518.7155963302752,-25.229357798165136,0.0
1760115239.4319315,157,-165.58417582417584,30.357098901098905,15.638505494505496,19.81679389312977,11.458015267175572,204.8091603053435,1807.5229357798164,-1266.3302752293578,-26.330275229357795,0.0
1760115239.463243,158,-229.70492307692308,-117.63375824175824,25.81503296703297,-27.282442748091604,-50.770992366412216,-5.3893129770992365,271.92660550458714,-692.7522935779817,2160.5504587155965,0.0
1760115239.473935,159,-225.10536263736265,-196.7461978021978,163.80184615384618,13.755725190839694,-29.267175572519083,-2.633587786259542,101.55963302752292,-732.5688073394496,2184.0366972477063,0.0
1760115239.4952035,160,-220.50580219780215,219.05406593406596,-209.68246153846152,25.480916030534356,-40.99236641221374,-13.541984732824428,177.61467889908258,-946.1467889908256,2442.3853211009173,0.0
1760115239.5059333,161,-215.90624175824175,226.41336263736264,-222.5612307692308,46.97709923664122,-50.76335877862596,-17.198473282442748,281.1926605504587,-734.1284403669725,2371.9266055045878,0.0
1760115239.527242,162,-211.3066813186813,228.25318681318683,-215.20193406593407,119.2824427480916,-58.58015267175573,-20.587786259541986,312.4770642201835,-760.6422018348624,2371.9266055045878,0.0
1760115239.5483716,163,-206.70712087912088,-205.9453186813187,-211.52228571428572,168.13740458015266,-60.534351145038165,-29.66412213740458,351.74311926605503,-863.9449541284403,2606.788990825688,0.0
1760115239.5591154,164,-202.10756043956047,-77.15762637362637,42.37345054945055,88.01526717557252,-11.6793893129771,-7.4961832061068705,-19.08256880733945,-895.5963302752293,2700.733944954128,0.0
1760115239.5803173,165,-197.508,-182.0276043956044,224.516043956044,201.3587786259542,13.725190839694656,1.2061068702290076,-233.76146788990823,-986.422018348624,2747.706422018349,0.0
1760115239.5910845,166,-192.9084395604396,178.57793406593407,-51.45758241758242,148.59541984732823,3.954198473282443,-1.2748091603053435,-140.27522935779817,-827.9816513761467,2653.761467889908,0.0
1760115239.622904,167,-188.3088791208791,184.09740659340665,-73.53547252747254,121.23664122137404,-3.862595419847328,0.9847328244274808,52.01834862385321,-727.7064220183486,2818.1651376146788,0.0
1760115239.6546526,168,-183.7093186813187,217.21424175824177,-104.81248351648352,160.3206106870229,-7.770992366412214,0.3816793893129771,125.5045871559633,-759.9082568807339,2771.192660550458,0.0
1760115239.6654062,169,-179.10975824175824,-205.9453186813187,-174.7258021978022,203.31297709923663,-5.816793893129771,1.8396946564885497,84.6788990825688,-945.5963302752292,2700.733944954128,0.0
1760115239.686459,170,-174.5101978021978,-191.22672527472525,-191.2842197802198,207.22137404580155,2.0,0.2442748091603053,-19.908256880733948,-791.1926605504588,2865.137614678899,0.0
1760115239.7176423,171,-169.91063736263737,233.77265934065932,-158.1673846153846,177.9083969465649,2.0,1.8778625954198476,-32.75229357798165,-929.908256880734,2841.651376146789,0.0
1760115239.7280524,172,-165.31107692307694,-233.54268131868133,-143.44879120879122,179.86259541984734,0.0458015267175572,0.366412213740458,3.1192660550458715,-936.880733944954,2959.08256880734,0.0
1760115239.7487214,173,-160.71151648351648,-233.54268131868133,-106.6523076923077,172.04580152671755,-3.862595419847328,0.9847328244274808,65.96330275229357,-961.0091743119266,2959.08256880734,0.0
1760115239.759044,174,-156.11195604395604,-215.1444395604396,-114.0116043956044,207.22137404580155,-9.725190839694656,1.7709923664122138,99.44954128440368,-1044.403669724771,2982.568807339449,0.0
1760115239.7797787,175,-151.5123956043956,-182.0276043956044,-152.6479120879121,211.1297709923664,-5.816793893129771,-1.8778625954198476,91.651376146789,-842.1100917431194,2818.1651376146788,0.0
1760115239.8108945,176,-146.91283516483517,-187.54707692307693,-128.7301978021978,216.99236641221373,-3.862595419847328,1.5419847328244274,29.72477064220184,-998.8990825688072,2982.568807339449,0.0
1760115239.8213768,177,-142.31327472527474,-196.7461978021978,-128.7301978021978,218.94656488549617,-3.862595419847328,-0.7633587786259542,43.944954128440365,-922.7522935779816,-2982.935779816514,0.0
1760115239.8423412,178,-137.7137142857143,-207.7851428571429,-125.05054945054944,203.31297709923663,-3.862595419847328,-1.1297709923664123,45.87155963302752,-1057.6146788990827,2888.623853211009,0.0
1760115239.8634746,179,-133.11415384615384,-220.66391208791208,-86.41424175824177,207.22137404580155,-5.816793893129771,1.4580152671755726,80.64220183486238,-1025.045871559633,-2982.935779816514,0.0
1760115239.8742836,180,-128.5145934065934,-224.3435604395605,-91.93371428571427,216.99236641221373,-11.6793893129771,1.1908396946564883,209.6330275229358,-932.6605504587156,2912.1100917431195,0.0
1760115239.8952043,181,-123.91503296703296,-165.46918681318684,-139.76914285714287,236.53435114503816,-13.63358778625954,3.732824427480916,253.11926605504587,-1233.9449541284405,-2982.935779816514,0.0
1760115239.9057434,182,-119.31547252747252,-121.3134065934066,-193.124043956044,-232.4732824427481,-5.816793893129771,2.564885496183206,95.6880733944954,-1229.2660550458716,2912.1100917431195,0.0
1760115239.9267905,183,-114.71591208791207,-182.0276043956044,-215.20193406593407,-228.5648854961832,-3.862595419847328,-0.0381679389312977,-35.96330275229358,-1189.5412844036696,2888.623853211009,0.0
1760115239.9583547,184,-110.11635164835164,-150.75059340659342,-99.293010989011,244.35114503816797,-1.9083969465648856,0.3358778625954198,15.137614678899084,-1171.651376146789,2982.568807339449,0.0
1760115239.9690485,185,-105.51679120879122,-150.75059340659342,-93.77353846153846,-244.19847328244276,-5.816793893129771,1.3893129770992367,54.220183486238525,-1139.7247706422015,2959.08256880734,0.0
1760115239.990322,186,-100.91723076923078,-139.71164835164836,-104.81248351648352,-218.793893129771,-9.725190839694656,1.7099236641221374,103.57798165137616,-1255.4128440366972,3006.05504587156,0.0
1760115240.0220733,187,-96.31767032967034,-156.27006593406594,-123.21072527472528,-224.65648854961836,-11.6793893129771,2.885496183206107,146.5137614678899,-1163.48623853211,-2912.477064220184,0.0
1760115240.0328112,188,-91.7181098901099,-126.83287912087911,-145.2886153846154,-210.9770992366412,-9.725190839694656,0.9694656488549618,109.90825688073392,-1364.0366972477063,3006.05504587156,0.0
1760115240.054059,189,-87.11854945054947,-139.71164835164836,-79.05494505494505,-212.93129770992363,-9.725190839694656,3.618320610687023,109.63302752293578,-1596.7889908256882,-2865.5045871559632,0.0
1760115240.064788,190,-82.51898901098902,-147.07094505494507,-47.77793406593406,-209.0229007633588,-13.63358778625954,4.351145038167939,202.5688073394496,-1419.1743119266057,-2982.935779816514,0.0
1760115240.0860407,191,-77.91942857142858,-86.35674725274727,-93.77353846153846,-177.75572519083968,-13.63358778625954,3.954198473282443,243.85321100917432,-1634.403669724771,-2982.935779816514,0.0
1760115240.11786,192,-73.31986813186813,-45.88061538461539,-163.68685714285715,-136.7175572519084,-7.770992366412214,2.687022900763359,97.43119266055048,-1580.1834862385322,-2982.935779816514,0.0
1760115240.1285553,193,-68.7203076923077,7.474285714285714,-137.92213186813188,-130.85496183206106,-3.862595419847328,1.5190839694656488,29.81651376146789,-1562.0183486238534,3006.05504587156,0.0
1760115240.1498904,194,-64.12074725274725,-31.16202197802198,-114.0116043956044,-136.7175572519084,-1.9083969465648856,-1.6259541984732824,15.871559633027523,-1572.3853211009175,2747.706422018349,0.0
1760115240.1816013,195,-59.521186813186816,-51.40008791208791,-102.97265934065936,-154.3053435114504,-1.9083969465648856,-1.183206106870229,18.1651376146789,-1652.5688073394494,3006.05504587156,0.0
1760115240.1923666,196,-54.92162637362637,-40.36114285714285,-95.61336263736264,-144.53435114503816,0.0458015267175572,-0.1526717557251908,-1.5596330275229358,-1601.467889908257,-2959.4495412844035,0.0
1760115240.2135787,197,-50.32206593406594,-42.20096703296704,-119.53107692307692,-134.76335877862596,3.954198473282443,-1.7709923664122138,-58.62385321100917,-1577.7064220183486,-2818.532110091743,0.0
1760115240.2243023,198,-45.7225054945055,-73.47797802197803,-130.570021978022,-152.35114503816794,3.954198473282443,-0.1297709923664122,-109.08256880733944,-1575.596330275229,-2935.9633027522937,0.0
1760115240.2455623,199,-41.122945054945056,-90.03639560439561,-121.37090109890111,-160.1679389312977,5.908396946564886,-0.8244274809160306,-101.0091743119266,-1485.4128440366972,-2959.4495412844035,0.0
1760115240.2773714,200,-36.52338461538462,-67.9585054945055,-161.84703296703296,-148.44274809160305,7.862595419847328,-0.0229007633587786,-157.9816513761468,-1422.6605504587155,3006.05504587156,0.0
1760115240.288066,201,-31.923824175824176,-69.79832967032966,-143.44879120879122,-158.21374045801528,13.725190839694656,-1.0076335877862594,-232.6605504587156,-1307.7064220183486,-2888.990825688073,0.0
1760115240.309122,202,-27.324263736263735,-91.87621978021978,-117.69125274725276,-171.89312977099237,15.6793893129771,-2.2977099236641223,-276.3302752293578,-1342.9357798165138,-2818.532110091743,0.0
1760115240.3211484,203,-22.7247032967033,-115.79393406593408,-126.89037362637364,-177.75572519083968,17.633587786259543,-7.450381679389313,-310.27522935779814,-1177.2477064220184,-2982.935779816514,0.0
1760115240.3424344,204,-18.12514285714286,-147.07094505494507,-147.12843956043957,-222.70229007633588,23.49618320610687,-7.709923664122138,-354.03669724770646,-1123.119266055046,-2935.9633027522937,0.0
1760115240.3741634,205,-13.525582417582418,-185.7072527472528,-147.12843956043957,-246.1526717557252,27.404580152671755,-5.694656488549619,-398.7155963302752,-954.3119266055046,2982.568807339449,0.0
1760115240.3848195,206,-8.926021978021978,-233.54268131868133,-137.92931868131868,232.6259541984733,29.3587786259542,-6.267175572519084,-377.5229357798165,-774.4954128440367,-2935.9633027522937,0.0
1760115240.406036,207,-4.326461538461539,204.33547252747252,-148.96826373626374,175.95419847328245,35.221374045801525,-6.297709923664122,-426.3302752293578,-709.5412844036697,-2818.532110091743,0.0
1760115240.4378598,208,0.2730989010989011,167.54617582417583,-148.96826373626374,146.6412213740458,43.038167938931295,-3.740458015267176,-467.2477064220184,-282.20183486238534,-2842.0183486238534,0.0
1760115240.448563,209,4.872659340659341,127.07004395604396,-143.44879120879122,117.32824427480917,43.038167938931295,-3.755725190839695,-406.2385321100917,-232.01834862385323,-2982.935779816514,0.0
1760115240.4698882,210,9.47221978021978,104.99215384615384,-163.68685714285715,86.06106870229007,41.083969465648856,-2.6564885496183206,-379.9082568807339,55.5045871559633,3006.146788990826,0.0
1760115240.5016215,211,14.07178021978022,82.91426373626375,-229.92052747252748,33.29770992366412,44.99236641221374,-0.465648854961832,-441.1926605504587,209.5412844036697,2747.798165137615,0.0
1760115240.5123568,212,18.67134065934066,47.9576043956044,200.5983296703297,-3.83206106870229,56.70992366412214,-1.763358778625954,-495.7798165137615,510.4587155963303,2771.2844036697247,0.0
1760115240.533545,213,23.2709010989011,25.87971428571429,149.08325274725274,-50.732824427480914,68.43511450381679,3.0,-595.5045871559632,665.4128440366973,2512.935779816514,0.0
1760115240.5442593,214,27.87046153846154,-3.557472527472528,81.00257142857144,-123.0381679389313,76.25190839694656,11.290076335877863,-670.9174311926605,780.5504587155963,2207.6146788990827,0.0
1760115240.5655577,215,-165.58417582417584,31.399186813186816,14.646725274725275,19.67175572519084,11.274809160305344,-220.4732824427481,752.2935779816514,-26.605504587155966,-19.72477064220184,0.0
1760115240.5762515,216,69.91331868131869,31.42074725274725,14.524549450549452,19.51145038167939,11.01526717557252,-245.8320610687023,-1643.577981651376,-2680.8256880733948,-17.706422018348626,0.0
1760115240.5974402,217,-165.58417582417584,31.435120879120884,14.388,19.16793893129771,10.625954198473282,-132.412213740458,258.8073394495413,-2000.183486238532,-16.69724770642202,0.0
1760115240.6292248,218,69.91331868131869,31.456681318681323,14.129274725274726,18.66412213740458,10.618320610687023,-249.55725190839692,-23.119266055045877,1311.1009174311926,-15.688073394495412,0.0
1760115240.6398616,219,-165.58417582417584,31.47105494505495,13.374659340659342,18.610687022900763,10.17557251908397,125.67175572519083,-2348.440366972477,2134.0366972477063,-14.770642201834864,0.0
1760115240.6609535,220,0.8552307692307692,69.91331868131869,31.492615384615387,14.076335877862595,18.022900763358777,9.83969465648855,-227.70642201834863,-1996.0550458715595,22.20183486238532,0.0
1760115240.671665,221,1.013340659340659,-165.58417582417584,31.506989010989013,15.076335877862595,16.801526717557252,9.3206106870229,-1708.073394495413,2607.1559633027523,-494.3119266055046,0.0
1760115240.6929643,222,1.0995824175824176,69.91331868131869,31.52854945054945,15.030534351145038,15.870229007633588,9.16030534351145,-1310.091743119266,2817.981651376147,-917.6146788990826,0.0
1760115240.7247424,223,1.193010989010989,-165.58417582417584,31.54292307692308,14.412213740458014,15.82442748091603,9.358778625954198,-488.6238532110092,1643.8532110091742,1595.8715596330276,0.0
1760115240.7354271,224,1.2361318681318685,69.91331868131869,31.56448351648352,14.84732824427481,15.274809160305344,9.526717557251908,1320.2752293577985,797.6146788990826,-1903.48623853211,0.0
1760115240.75676,225,1.2433186813186814,-165.58417582417584,31.578857142857142,14.549618320610689,14.84732824427481,9.580152671755725,2822.3853211009173,1407.798165137615,-1010.7339449541284,0.0
1760115240.7781415,226,1.2576923076923077,69.91331868131869,31.600417582417585,14.51908396946565,14.50381679389313,9.610687022900764,-607.2477064220183,2206.788990825688,-188.6238532110092,0.0
1760115240.7889435,227,1.2433186813186814,-165.58417582417584,31.61479120879121,14.3206106870229,14.076335877862595,9.419847328244275,1599.2660550458716,-2560.091743119266,-24.12844036697248,0.0
1760115240.8099809,228,1.2217582417582418,69.91331868131869,31.63635164835165,14.404580152671755,14.02290076335878,9.740458015267176,2655.229357798165,2607.064220183486,586.7889908256881,0.0
1760115240.8206477,229,-165.58417582417584,0.0,96.86386813186814,197.50381679389312,93.85496183206106,-33.16793893129771,188.25688073394497,44.4954128440367,-69.1743119266055,0.0
1760115240.85248,230,69.91331868131869,31.67228571428572,13.590263736263736,13.923664122137405,9.549618320610689,-35.152671755725194,1080.4587155963302,2771.2844036697247,-10.366972477064222,0.0
1760115240.8842683,231,-165.58417582417584,31.686659340659343,13.698065934065934,13.893129770992369,9.65648854961832,-19.52671755725191,-1174.2201834862385,-1127.4311926605503,-10.73394495412844,0.0
1760115240.8948364,232,69.91331868131869,31.708219780219785,13.769934065934066,14.02290076335878,9.793893129770993,-27.32824427480916,94.03669724770644,-1785.0458715596328,-9.908256880733946,0.0
1760115240.9160151,233,-165.58417582417584,31.722593406593408,13.726813186813189,13.916030534351146,9.725190839694656,-80.09923664122137,-1573.577981651376,845.5045871559633,-10.550458715596331,0.0
1760115240.9266565,234,69.91331868131869,31.74415384615385,13.561516483516485,13.572519083969466,9.610687022900764,-193.49618320610688,70.64220183486239,2207.7981651376144,-9.908256880733946,0.0
1760115240.9479651,235,-165.58417582417584,31.75852747252748,13.561516483516485,13.702290076335878,9.16030534351145,-68.50381679389314,-2395.045871559633,2325.321100917431,-10.825688073394495,0.0
1760115240.969175,236,69.91331868131869,31.780087912087915,13.848989010989012,14.259541984732824,9.541984732824428,119.0534351145038,1644.862385321101,282.20183486238534,-11.192660550458717,0.0
1760115241.0008483,237,-165.58417582417584,31.79446153846154,13.93523076923077,14.473282442748092,9.725190839694656,121.03053435114504,1386.238532110092,1362.5688073394497,-11.10091743119266,0.0
1760115241.011554,238,69.91331868131869,31.81602197802198,13.77712087912088,14.32824427480916,9.404580152671755,156.1679389312977,2020.4587155963304,1386.238532110092,-11.926605504587156,0.0
1760115241.032875,239,1.2145714285714286,-165.58417582417584,31.830395604395605,14.687022900763358,14.450381679389311,9.435114503816791,1664.7706422018348,-210.45871559633028,1550.8256880733943,0.0
1760115241.0645523,240,1.2073846153846155,69.91331868131869,31.851956043956047,14.931297709923664,14.954198473282442,9.557251908396946,560.9174311926606,2537.5229357798166,916.788990825688,0.0
1760115241.0752845,241,1.200197802197802,-165.58417582417584,31.866329670329677,15.01526717557252,15.389312977099236,9.526717557251908,-989.0825688073396,-539.908256880734,-492.3853211009174,0.0
1760115241.0965607,242,1.2073846153846155,69.91331868131869,31.88789010989011,14.99236641221374,15.396946564885496,9.404580152671755,-871.6513761467891,-1714.0366972477063,259.26605504587155,0.0
1760115241.1073146,243,1.14989010989011,-165.58417582417584,31.902263736263738,15.0381679389313,15.534351145038167,9.51908396946565,2322.6605504587155,494.0366972477064,282.7522935779816,0.0
1760115241.128518,244,1.185824175824176,69.91331868131869,31.923824175824176,15.259541984732824,15.84732824427481,9.763358778625957,2463.9449541284403,493.8532110091744,-2324.3119266055046,0.0
1760115241.1392624,245,1.1211428571428572,-165.58417582417584,31.9381978021978,15.229007633587786,16.03053435114504,9.625954198473282,773.1192660550458,-187.5229357798165,2889.633027522936,0.0
1760115241.1604166,246,1.1427032967032968,69.91331868131869,31.959758241758244,15.16030534351145,16.358778625954198,9.381679389312977,2675.0458715596333,2536.788990825688,-1807.4311926605503,0.0
1760115241.1922314,247,1.1283296703296704,-165.58417582417584,31.97413186813187,15.045801526717558,16.549618320610687,9.229007633587786,-378.9908256880734,-633.9449541284404,1598.440366972477,0.0
1760115241.2029326,248,1.085208791208791,69.91331868131869,31.99569230769231,14.98473282442748,16.717557251908396,9.198473282442748,2344.9541284403667,1386.1467889908256,2326.880733944954,0.0
1760115241.2242312,249,1.020527472527473,-165.58417582417584,32.010065934065935,15.36641221374046,16.931297709923665,9.755725190839694,-1576.51376146789,2302.477064220184,-92.4770642201835,0.0
1760115241.2560022,250,0.9774065934065936,69.91331868131869,32.03162637362637,15.702290076335878,17.267175572519083,10.0381679389313,-2820.5504587155965,1292.2935779816514,-938.348623853211,0.0
1760115241.266734,251,0.9270989010989013,-165.58417582417584,32.046,15.580152671755725,17.458015267175572,9.854961832061068,-2045.596330275229,1808.8073394495411,-961.8348623853212,0.0
1760115241.2880218,252,0.9127252747252748,69.91331868131869,32.06756043956044,15.572519083969466,17.870229007633586,9.702290076335878,-73.21100917431193,-2935.4128440366976,823.4862385321101,0.0
1760115241.2985926,253,0.8480439560439561,-165.58417582417584,32.081934065934064,15.709923664122137,18.603053435114504,9.702290076335878,-50.64220183486239,2700.917431192661,-937.7064220183488,0.0
1760115241.3198345,254,0.7833626373626373,69.91331868131869,32.10349450549451,15.687022900763358,18.82442748091603,9.67175572519084,2179.266055045872,-916.330275229358,120.27522935779815,0.0
1760115241.3411486,255,0.7618021978021978,-165.58417582417584,32.117868131868136,16.061068702290076,18.64885496183206,10.458015267175572,2978.532110091743,2043.302752293578,1177.1559633027523,0.0
1760115241.3519742,256,0.5677582417582419,69.91331868131869,32.139428571428574,16.442748091603054,18.427480916030536,10.99236641221374,2135.4128440366976,-586.9724770642202,1316.6055045871558,0.0
1760115241.3837135,257,-165.58417582417584,32.1538021978022,15.250417582417583,18.931297709923665,10.717557251908396,-224.8473282442748,1620.275229357798,2490.366972477064,-21.192660550458715,0.0
1760115241.394192,258,69.91331868131869,32.17536263736264,15.042000000000002,19.236641221374047,10.595419847328245,5.694656488549619,469.4495412844037,2161.9266055045878,-21.55963302752294,0.0
1760115241.4147704,259,-165.58417582417584,32.189736263736265,15.042000000000002,19.38167938931298,10.63358778625954,-228.8702290076336,422.47706422018354,565.4128440366973,-21.834862385321102,0.0
1760115241.4457266,260,69.91331868131869,32.2112967032967,15.042000000000002,19.916030534351144,10.763358778625957,44.65648854961832,2113.211009174312,1810.8256880733943,-22.385321100917437,0.0
1760115241.4562764,261,-165.58417582417584,32.22567032967033,15.473208791208792,19.893129770992367,11.0,230.3206106870229,2465.5963302752293,-2534.0366972477063,-22.84403669724771,0.0
1760115241.477367,262,69.91331868131869,32.24723076923077,15.9690989010989,19.450381679389317,11.49618320610687,246.0916030534351,2465.779816513761,-2229.908256880734,-24.12844036697248,0.0
1760115241.488048,263,-165.58417582417584,32.261604395604394,15.753494505494508,19.740458015267176,11.458015267175572,218.80152671755727,-1127.798165137615,70.91743119266056,-23.669724770642205,0.0
1760115241.5093253,264,69.91331868131869,32.28316483516483,15.652879120879122,19.946564885496183,11.526717557251908,17.51145038167939,2606.605504587156,2043.8532110091744,-24.403669724770644,0.0
1760115241.540954,265,-208.54694505494507,196.98336263736263,119.64606593406592,-103.49618320610686,-25.366412213740457,-7.435114503816794,168.89908256880736,-241.19266055045875,1831.743119266055,0.0
1760115241.5727615,266,-203.94738461538464,167.54617582417583,195.07885714285715,-97.63358778625954,-35.13740458015267,-7.458015267175573,295.8715596330275,-331.0091743119266,1784.7706422018348,0.0
1760115241.5834403,267,-199.34782417582417,198.8231868131868,220.8363956043956,-46.82442748091603,-41.0,-3.938931297709924,380.55045871559633,-446.605504587156,1925.6880733944956,0.0
1760115241.604731,268,-194.7482637362637,-170.98147252747253,132.52483516483517,21.572519083969464,-23.404580152671755,-2.404580152671756,260.73394495412845,-443.8532110091744,2019.633027522936,0.0
1760115241.636364,269,-190.1487032967033,-169.14164835164834,119.64606593406592,39.16030534351145,-7.770992366412214,-4.572519083969466,30.550458715596328,-829.7247706422019,2066.605504587156,0.0
1760115241.647004,270,-185.54914285714287,-211.4576043956044,156.44254945054945,25.480916030534356,-1.9083969465648856,-3.145038167938931,-38.899082568807344,-948.0733944954128,2137.064220183486,0.0
1760115241.66833,271,-180.9495824175824,-216.9770769230769,178.52043956043957,25.480916030534356,-3.862595419847328,-2.954198473282443,-13.853211009174313,-681.559633027523,2160.5504587155965,0.0
1760115241.679013,272,-176.350021978022,-193.05936263736265,171.16114285714286,27.435114503816795,0.0458015267175572,-0.5877862595419847,-46.05504587155964,-638.7155963302752,2043.1192660550455,0.0
1760115241.7002983,273,-171.75046153846156,-170.98147252747253,220.8363956043956,31.34351145038168,3.954198473282443,-0.9847328244274808,-93.11926605504588,-800.0917431192661,2137.064220183486,0.0
1760115241.7109787,274,-167.1509010989011,-207.77795604395604,-172.88597802197805,13.755725190839694,-1.9083969465648856,-2.2900763358778624,-8.990825688073395,-687.5229357798165,2184.0366972477063,0.0
1760115241.7322226,275,-162.5513406593407,-218.8169010989011,231.87534065934068,11.801526717557252,-1.9083969465648856,-2.1603053435114505,22.01834862385321,-563.9449541284404,2137.064220183486,0.0
1760115241.7639546,276,-157.95178021978023,-207.77795604395604,198.7585054945055,31.34351145038168,3.954198473282443,-0.8854961832061069,-12.201834862385322,-678.6238532110092,2090.091743119266,0.0
1760115241.774627,277,-153.35221978021977,-216.9770769230769,160.1221978021978,39.16030534351145,7.862595419847328,-1.5114503816793894,-85.68807339449542,-534.7706422018349,2137.064220183486,0.0
1760115241.7959406,278,-148.7526593406593,-235.3753186813187,182.20008791208792,23.52671755725191,7.862595419847328,-0.0916030534351145,-134.03669724770643,-669.2660550458716,2113.577981651376,0.0
1760115241.817058,279,-144.1530989010989,222.74090109890116,207.9576263736264,7.893129770992366,11.770992366412214,-1.6412213740458017,-183.76146788990823,-611.8348623853211,2207.5229357798166,0.0
1760115241.827651,280,-139.5535384615385,213.54178021978024,206.1178021978022,-13.603053435114504,11.763358778625957,-1.4122137404580153,-182.11009174311928,-382.29357798165137,2137.064220183486,0.0
1760115241.8489256,281,-134.95397802197803,219.06125274725275,196.9186813186813,-15.557251908396946,11.763358778625957,-1.1068702290076335,-157.61467889908255,-396.0550458715596,2207.5229357798166,0.0
1760115241.8595903,282,-130.3544175824176,217.2214285714286,150.92307692307693,-27.282442748091604,15.67175572519084,-0.3587786259541984,-194.4954128440367,-342.29357798165137,2043.1192660550455,0.0
1760115241.8809156,283,-125.75485714285716,211.70195604395607,125.16553846153847,-19.46564885496183,21.53435114503817,-0.7404580152671756,-237.3394495412844,-254.95412844036696,1949.1743119266052,0.0
1760115241.912536,284,-121.15529670329671,231.940021978022,77.3301098901099,-19.46564885496183,33.25954198473283,-3.6564885496183206,-380.4587155963303,-184.3119266055046,1949.1743119266052,0.0
1760115241.9232657,285,-116.55573626373628,213.54178021978024,77.3301098901099,-35.099236641221374,48.89312977099237,-4.893129770992366,-572.4770642201835,134.12844036697246,1878.8073394495411,0.0
1760115241.9445286,286,-111.95617582417584,150.98775824175826,31.3345054945055,-95.6793893129771,64.52671755725191,-7.938931297709924,-742.7522935779817,12.293577981651376,1737.8899082568807,0.0
1760115241.976276,287,-165.58417582417584,32.69281318681319,14.977318681318682,19.549618320610687,11.16030534351145,17.893129770992367,-470.3669724770642,2180.9174311926604,-20.91743119266055,0.0
1760115241.986936,288,69.91331868131869,32.71437362637363,14.582043956043956,19.45801526717557,10.854961832061068,-208.763358778626,1408.532110091743,-919.6330275229355,-20.55045871559633,0.0
1760115242.0080843,289,-165.58417582417584,32.728747252747254,14.330505494505497,19.18320610687023,10.51908396946565,78.53435114503817,140.45871559633028,2955.5963302752293,-18.34862385321101,0.0
1760115242.0187936,290,69.91331868131869,32.75030769230769,14.158021978021978,18.946564885496183,10.3206106870229,164.54198473282443,-2395.779816513761,-2023.394495412844,-16.972477064220186,0.0
1760115242.040053,291,-165.58417582417584,32.76468131868132,13.913670329670332,18.603053435114504,10.083969465648854,225.1145038167939,-1785.137614678899,-942.7522935779816,-15.871559633027523,0.0
1760115242.0508535,292,69.91331868131869,32.78624175824176,13.848989010989012,18.18320610687023,9.938931297709924,225.09923664122135,2865.3211009174315,1688.1651376146788,-14.862385321100918,0.0
1760115242.0825486,293,0.7043076923076923,-165.58417582417584,32.80061538461539,14.6793893129771,17.717557251908396,9.877862595419847,2353.02752293578,516.4220183486239,1946.697247706422,0.0
1760115242.1143005,294,0.7402417582417582,69.91331868131869,32.82217582417583,14.572519083969466,17.297709923664122,9.763358778625957,-1639.5412844036698,1127.0642201834862,1242.201834862385,0.0
1760115242.124977,295,0.8480439560439561,-165.58417582417584,32.836549450549455,14.435114503816791,16.82442748091603,9.67175572519084,-2226.97247706422,657.1559633027523,303.11926605504584,0.0
1760115242.1461606,296,0.9486593406593408,69.91331868131869,32.858109890109894,14.358778625954198,16.427480916030536,9.50381679389313,2305.5045871559632,187.61467889908255,2323.3027522935777,0.0
1760115242.167382,297,0.998967032967033,-165.58417582417584,32.87248351648352,14.35114503816794,16.129770992366414,9.450381679389311,2117.2477064220184,-752.1100917431193,-236.5137614678899,0.0
1760115242.1780171,298,1.0277142857142858,69.91331868131869,32.89404395604396,14.297709923664122,15.83206106870229,9.396946564885496,-1852.110091743119,1573.302752293578,92.56880733944956,0.0
1760115242.1992128,299,1.0636483516483517,-165.58417582417584,32.908417582417584,14.33587786259542,15.48091603053435,9.473282442748092,-1077.4311926605503,-2936.146788990826,2934.587155963303,0.0
1760115242.2309155,300,1.0492747252747252,69.91331868131869,32.92997802197802,14.30534351145038,15.099236641221374,9.48091603053435,-420.1834862385321,-1010.2752293577984,-1715.5045871559632,0.0
1760115242.2415311,301,1.0923956043956045,-165.58417582417584,32.94435164835165,14.358778625954198,14.938931297709924,9.50381679389313,1646.4220183486236,1902.201834862385,-1574.4954128440368,0.0
1760115242.262825,302,1.113956043956044,69.91331868131869,32.96591208791209,14.419847328244275,14.786259541984732,9.66412213740458,589.3577981651376,2254.4036697247707,1103.119266055046,0.0
1760115242.2735047,303,1.14989010989011,-165.58417582417584,32.98028571428571,14.419847328244275,14.511450381679388,9.6793893129771,-2346.6972477064223,-1080.7339449541284,2301.0091743119265,0.0
1760115242.294728,304,1.1355164835164837,69.91331868131869,33.00184615384616,14.312977099236642,14.35114503816794,9.610687022900764,2561.559633027523,-2231.559633027523,-305.8715596330275,0.0
1760115242.3263834,305,1.106769230769231,-165.58417582417584,33.016219780219785,14.274809160305344,14.206106870229007,9.641221374045802,-2699.5412844036696,328.62385321100913,-658.0733944954129,0.0
1760115242.3370657,306,69.91331868131869,33.037780219780224,13.496835164835163,14.17557251908397,9.64885496183206,-162.0916030534351,-1926.0550458715595,1173.9449541284405,-9.357798165137616,0.0
1760115242.3582497,307,-165.58417582417584,33.05215384615385,13.475274725274726,13.99236641221374,9.610687022900764,-201.206106870229,-47.24770642201835,1338.440366972477,-9.08256880733945,0.0
1760115242.3689382,308,69.91331868131869,33.07371428571429,13.4609010989011,13.938931297709924,9.6793893129771,-175.83969465648855,-610.8256880733945,-2254.8623853211006,-9.357798165137616,0.0
1760115242.3902254,309,-165.58417582417584,33.088087912087914,13.453714285714286,13.86259541984733,9.816793893129772,-25.38167938931298,-2959.3577981651374,1808.348623853211,-9.174311926605505,0.0
1760115242.4219935,310,69.91331868131869,33.10964835164835,13.468087912087912,13.854961832061068,9.778625954198471,93.81679389312976,681.1009174311927,-1432.7522935779816,-9.357798165137616,0.0
1760115242.4324677,311,-165.58417582417584,33.12402197802198,13.496835164835163,13.86259541984733,9.9618320610687,234.51908396946564,-1103.9449541284405,-2019.9082568807337,-9.08256880733945,0.0
1760115242.4534204,312,69.91331868131869,33.14558241758242,13.48246153846154,13.84732824427481,9.84732824427481,-70.34351145038168,-2959.3577981651374,-187.9816513761468,-8.89908256880734,0.0
1760115242.4850743,313,-165.58417582417584,33.15995604395604,13.468087912087912,13.83969465648855,9.83206106870229,201.29007633587787,2841.743119266055,446.2385321100918,-9.26605504587156,0.0
1760115242.4958029,314,69.91331868131869,33.18151648351648,13.453714285714286,13.83206106870229,9.763358778625957,-154.38167938931298,-1221.3761467889908,1902.3853211009173,-9.08256880733945,0.0
1760115242.5170825,315,-165.58417582417584,33.19589010989011,13.489648351648352,13.83206106870229,9.786259541984732,-238.412213740458,540.1834862385322,1244.770642201835,-9.174311926605505,0.0
1760115242.5278792,316,69.91331868131869,33.217450549450554,13.518395604395606,13.86259541984733,9.854961832061068,199.33587786259545,1526.605504587156,399.2660550458716,-9.44954128440367,0.0
1760115242.5490656,317,-165.58417582417584,33.23182417582418,13.532769230769231,13.82442748091603,9.938931297709924,-44.94656488549618,422.7522935779817,2090.2752293577983,-8.623853211009175,0.0
1760115242.570258,318,69.91331868131869,33.25338461538462,13.504021978021978,13.877862595419847,9.9618320610687,201.2977099236641,-2912.3853211009173,211.37614678899084,-9.44954128440367,0.0
1760115242.6019902,319,-165.58417582417584,33.267758241758244,13.468087912087912,13.83206106870229,9.854961832061068,-125.04580152671755,1244.6788990825687,-258.4403669724771,-8.89908256880734,0.0
1760115242.612607,320,69.91331868131869,33.28931868131868,13.39621978021978,13.725190839694656,9.86259541984733,-76.18320610687023,1385.596330275229,-2301.7431192660547,-9.26605504587156,0.0
1760115242.633932,321,-165.58417582417584,33.30369230769231,13.3530989010989,13.64885496183206,9.877862595419847,-183.65648854961836,-2865.412844036697,516.605504587156,-8.53211009174312,0.0
1760115242.6446087,322,69.91331868131869,33.32525274725275,13.374659340659342,13.595419847328245,9.923664122137405,21.53435114503817,-1761.5596330275228,-1010.091743119266,-9.541284403669724,0.0
1760115242.6659238,323,-165.58417582417584,33.33962637362637,13.41778021978022,13.595419847328245,9.969465648854962,-214.93129770992363,634.1284403669725,-1597.2477064220184,-8.715596330275229,0.0
1760115242.6976256,324,69.91331868131869,33.36118681318681,13.525582417582418,13.702290076335878,10.02290076335878,9.816793893129772,2794.770642201835,3006.05504587156,-8.990825688073395,0.0
1760115242.7083387,325,-165.58417582417584,33.37556043956044,13.518395604395606,13.618320610687023,10.00763358778626,134.9083969465649,1878.8073394495411,1573.394495412844,-8.807339449541285,0.0
1760115242.7295086,326,69.91331868131869,33.39712087912088,13.504021978021978,13.51908396946565,10.045801526717558,-33.13740458015267,1268.1651376146788,-1597.3394495412845,-8.34862385321101,0.0
1760115242.7402594,327,-165.58417582417584,33.41149450549451,13.475274725274726,13.435114503816791,9.99236641221374,-113.25190839694656,2207.706422018349,-1902.6605504587155,-8.807339449541285,0.0
1760115242.7614915,328,69.91331868131869,33.43305494505495,13.489648351648352,13.30534351145038,10.083969465648854,160.35114503816794,-1456.2385321100917,2653.669724770642,-8.623853211009175,0.0
1760115242.7932303,329,-165.58417582417584,33.447428571428574,13.518395604395606,13.236641221374043,10.106870229007631,-107.36641221374046,-1996.422018348624,1855.137614678899,-8.89908256880734,0.0
1760115242.803937,330,69.91331868131869,33.46898901098901,13.496835164835163,13.00763358778626,9.98473282442748,-46.82442748091603,-1996.422018348624,1385.5045871559637,-8.073394495412845,0.0
1760115242.8251507,331,-165.58417582417584,33.48336263736264,13.4609010989011,12.946564885496183,10.129770992366412,-25.3587786259542,-23.57798165137615,-1338.8990825688074,-8.715596330275229,0.0
1760115242.8569777,332,69.91331868131869,33.50492307692308,13.468087912087912,12.923664122137405,10.114503816793894,205.23664122137404,-3006.238532110092,-1691.1926605504586,-8.53211009174312,0.0
1760115242.8677132,333,-165.58417582417584,33.5192967032967,13.511208791208793,12.931297709923664,10.083969465648854,209.12213740458012,-681.1926605504588,93.8532110091743,-8.1651376146789,0.0
1760115242.8888776,334,69.91331868131869,33.54085714285714,13.539956043956044,12.931297709923664,10.16030534351145,54.732824427480914,2043.302752293578,1056.788990825688,-8.807339449541285,0.0
1760115242.9204414,335,-165.58417582417584,33.55523076923077,13.55432967032967,12.931297709923664,10.106870229007631,136.793893129771,-2231.192660550458,-2607.064220183486,-8.53211009174312,0.0
1760115242.9311736,336,69.91331868131869,33.57679120879121,13.568703296703298,12.923664122137405,10.16793893129771,25.396946564885496,634.2201834862385,-1221.3761467889908,-8.623853211009175,0.0
1760115242.9524634,337,-165.58417582417584,33.59116483516483,13.568703296703298,12.97709923664122,10.083969465648854,-39.099236641221374,-822.0183486238533,-187.9816513761468,-9.724770642201836,0.0
1760115242.963214,338,69.91331868131869,33.61272527472527,13.604637362637362,13.045801526717558,10.16793893129771,197.3740458015267,-2583.4862385321103,-375.8715596330275,-8.715596330275229,0.0
1760115242.9844763,339,-165.58417582417584,33.627098901098904,13.525582417582418,12.931297709923664,10.198473282442748,-199.33587786259545,1972.844036697248,1597.0642201834862,-8.715596330275229,0.0
1760115243.0162885,340,69.91331868131869,33.64865934065934,13.547142857142855,12.923664122137405,10.198473282442748,-127.0381679389313,-1737.9816513761468,352.2935779816514,-8.440366972477065,0.0
1760115243.0269845,341,-165.58417582417584,33.66303296703297,13.590263736263736,13.0381679389313,10.106870229007631,107.45038167938932,328.89908256880733,-2653.9449541284407,-8.807339449541285,0.0
1760115243.0378098,342,69.91331868131869,33.68459340659341,13.57589010989011,13.0381679389313,10.099236641221374,144.59541984732823,-1315.2293577981652,1644.0366972477066,-8.89908256880734,0.0
1760115243.0485158,343,-165.58417582417584,33.69896703296703,13.561516483516485,13.053435114503817,10.045801526717558,-41.06106870229008,-2043.302752293578,-2254.678899082569,-8.990825688073395,0.0
1760115243.0698524,344,69.91331868131869,33.72052747252747,13.532769230769231,12.97709923664122,10.198473282442748,158.26717557251908,1010.0,-2818.3486238532114,-8.89908256880734,0.0
1760115243.1015928,345,-165.58417582417584,33.734901098901105,13.561516483516485,13.061068702290076,10.106870229007631,70.3206106870229,164.4954128440367,-1784.9541284403672,-9.357798165137616,0.0
1760115243.1123486,346,69.91331868131869,33.756461538461544,13.590263736263736,13.068702290076336,10.083969465648854,-41.083969465648856,-657.5229357798165,-634.1284403669725,-9.724770642201836,0.0
1760115243.1336155,347,-165.58417582417584,33.77083516483517,13.539956043956044,13.114503816793894,9.931297709923664,31.206106870229007,-1408.9908256880735,1785.0458715596328,-8.807339449541285,0.0
1760115243.165372,348,69.91331868131869,33.79239560439561,13.654945054945054,13.30534351145038,9.97709923664122,-152.49618320610688,211.651376146789,-2935.6880733944954,-9.44954128440367,0.0
1760115243.17611,349,-165.58417582417584,33.806769230769234,13.734,13.458015267175572,9.969465648854962,222.7328244274809,305.5045871559633,2301.7431192660547,-8.990825688073395,0.0
1760115243.1973166,350,69.91331868131869,33.82832967032967,13.719626373626374,13.48091603053435,9.931297709923664,207.1145038167939,1338.8073394495414,2207.7981651376144,-9.724770642201836,0.0
1760115243.2290328,351,-165.58417582417584,33.8427032967033,13.669318681318682,13.36641221374046,9.923664122137405,-154.4351145038168,188.07339449541288,-140.8256880733945,-10.091743119266056,0.0
1760115243.2397568,352,69.91331868131869,33.86426373626374,13.669318681318682,13.404580152671755,9.931297709923664,128.9083969465649,-1620.366972477064,-2794.678899082569,-9.724770642201836,0.0
1760115243.2610097,353,-165.58417582417584,33.87863736263736,13.669318681318682,13.51908396946565,9.900763358778626,210.9770992366412,47.24770642201835,-2231.0091743119265,-10.275229357798166,0.0
1760115243.271731,354,69.91331868131869,33.90019780219781,13.676505494505497,13.541984732824428,9.740458015267176,-113.45038167938932,-2019.5412844036696,2419.357798165138,-10.091743119266056,0.0
1760115243.292988,355,-165.58417582417584,33.914571428571435,13.748373626373626,13.725190839694656,9.83969465648855,-93.90839694656488,2583.761467889908,-2912.018348623853,-10.275229357798166,0.0
1760115243.3246648,356,69.91331868131869,33.93613186813187,13.791494505494503,13.969465648854962,9.946564885496183,-76.27480916030534,375.9633027522936,2701.100917431193,-10.366972477064222,0.0
1760115243.3353915,357,-165.58417582417584,33.9505054945055,13.769934065934066,13.9618320610687,9.755725190839694,-130.96946564885496,1832.018348623853,-1456.0550458715595,-10.0,0.0
1760115243.3566482,358,69.91331868131869,33.97206593406594,13.769934065934066,13.916030534351146,9.885496183206106,-95.78625954198472,-2606.880733944954,1902.4770642201836,-11.46788990825688,0.0
1760115243.388443,359,-165.58417582417584,33.986439560439564,13.784307692307692,13.877862595419847,9.84732824427481,-119.2442748091603,1644.1284403669729,2701.0091743119265,-10.550458715596331,0.0
1760115243.399154,360,69.91331868131869,34.008,13.784307692307692,14.00763358778626,9.793893129770993,203.1908396946565,2137.3394495412845,-140.8256880733945,-10.458715596330276,0.0
1760115243.4203303,361,-165.58417582417584,34.02237362637363,13.827428571428571,14.114503816793894,9.793893129770993,-3.946564885496183,-1784.9541284403672,-2935.6880733944954,-10.73394495412844,0.0
1760115243.4310012,362,69.91331868131869,34.04393406593407,13.834615384615386,14.244274809160306,9.717557251908396,27.3587786259542,-305.41284403669727,-1456.1467889908258,-10.917431192660551,0.0
1760115243.4522913,363,-165.58417582417584,34.05830769230769,13.79868131868132,14.16793893129771,9.65648854961832,128.98473282442748,2019.7247706422015,-2113.7614678899085,-10.642201834862384,0.0
1760115243.4734569,364,69.91331868131869,34.07986813186813,13.719626373626374,14.045801526717558,9.67175572519084,-93.80916030534353,-1456.2385321100917,-939.4495412844036,-10.18348623853211,0.0
1760115243.4842343,365,-165.58417582417584,34.09424175824176,13.69087912087912,14.061068702290076,9.702290076335878,76.20610687022901,1385.6880733944954,-962.9357798165138,-10.917431192660551,0.0
1760115243.515983,366,69.91331868131869,34.1158021978022,13.719626373626374,14.076335877862595,9.725190839694656,132.87786259541986,-2700.917431192661,-2888.8073394495414,-10.825688073394495,0.0
1760115243.5266647,367,-165.58417582417584,34.13017582417583,13.75556043956044,14.13740458015267,9.687022900763358,-0.015267175572519,-2231.192660550458,-2395.5963302752293,-11.009174311926609,0.0
1760115243.547963,368,69.91331868131869,34.15173626373627,13.77712087912088,14.15267175572519,9.740458015267176,-211.06106870229007,1644.0366972477066,2395.5963302752293,-10.642201834862384,0.0
1760115243.5797458,369,-165.58417582417584,34.166109890109894,13.762747252747252,14.129770992366412,9.64885496183206,-203.25954198473283,-2747.889908256881,141.0091743119266,-11.009174311926609,0.0
1760115243.5904217,370,69.91331868131869,34.18767032967033,13.827428571428571,14.198473282442748,9.709923664122137,68.37404580152672,-634.1284403669725,1785.0458715596328,-10.73394495412844,0.0
1760115243.6117156,371,-165.58417582417584,34.20204395604396,13.834615384615386,14.267175572519085,9.702290076335878,199.31297709923663,2912.293577981652,493.302752293578,-11.926605504587156,0.0
1760115243.622399,372,69.91331868131869,34.2236043956044,13.82024175824176,14.297709923664122,9.748091603053435,-3.916030534351145,-2982.844036697248,-1573.577981651376,-10.917431192660551,0.0
1760115243.6435795,373,-165.58417582417584,34.23797802197802,13.748373626373626,14.259541984732824,9.549618320610689,74.25190839694656,1080.3669724770643,-1737.9816513761468,-10.366972477064222,0.0
1760115243.6753452,374,69.91331868131869,34.25953846153846,13.79868131868132,14.274809160305344,9.717557251908396,127.01526717557252,-2724.4036697247707,-1127.3394495412845,-10.550458715596331,0.0
1760115243.6965778,375,-165.58417582417584,34.27391208791209,13.813054945054947,14.274809160305344,9.63358778625954,132.8854961832061,-164.4954128440367,2583.4862385321103,-11.10091743119266,0.0
1760115243.707314,376,69.91331868131869,34.295472527472526,13.77712087912088,14.17557251908397,9.69465648854962,-220.82442748091603,1784.9541284403672,1737.9816513761468,-11.192660550458717,0.0
1760115243.728541,377,-165.58417582417584,34.30984615384616,13.75556043956044,14.290076335877863,9.69465648854962,25.404580152671755,1902.3853211009173,2113.7614678899085,-11.009174311926609,0.0
1760115243.7392635,378,69.91331868131869,34.3314065934066,13.791494505494503,14.297709923664122,9.748091603053435,42.99236641221374,775.045871559633,-2912.293577981652,-11.009174311926609,0.0
1760115243.7604933,379,-165.58417582417584,34.345780219780224,13.784307692307692,14.290076335877863,9.725190839694656,-50.81679389312977,-1479.7247706422015,2982.7522935779816,-11.46788990825688,0.0
1760115243.7923064,380,-204.22048351648357,0.0,-150.59248351648353,238.54961832061068,140.75572519083968,-37.0763358778626,-23.119266055045877,-7.431192660550459,22.01834862385321,0.0
1760115243.8029845,381,-165.58417582417584,34.38171428571429,13.813054945054947,14.30534351145038,9.67175572519084,-84.04580152671755,70.45871559633028,-1385.6880733944954,-10.825688073394495,0.0
1760115243.8241918,382,69.91331868131869,34.40327472527473,13.805868131868134,14.35114503816794,9.641221374045802,-35.18320610687023,-2912.3853211009173,-2747.889908256881,-11.009174311926609,0.0
1760115243.8559787,383,-165.58417582417584,34.41764835164835,13.75556043956044,14.33587786259542,9.625954198473282,-41.045801526717554,-2113.853211009174,-2395.5963302752293,-10.917431192660551,0.0
1760115243.8666582,384,69.91331868131869,34.43920879120879,13.769934065934066,14.251908396946565,9.603053435114504,-80.13740458015268,-1996.330275229358,-1902.3853211009173,-11.009174311926609,0.0
1760115243.8879502,385,-165.58417582417584,34.45358241758242,13.8418021978022,14.404580152671755,9.740458015267176,119.206106870229,493.2110091743119,2959.266055045872,-10.825688073394495,0.0
1760115243.8986237,386,-198.701010989011,0.0,-122.99512087912088,-248.04580152671755,175.93129770992363,-54.66412213740458,-23.119266055045877,11.376146788990829,0.7339449541284404,0.0
1760115243.9199307,387,-165.58417582417584,34.48951648351648,13.77712087912088,14.389312977099236,9.641221374045802,205.1908396946565,-963.0275229357798,2325.1376146789,-11.559633027522937,0.0
1760115243.9516666,388,69.91331868131869,34.51107692307692,13.748373626373626,14.358778625954198,9.549618320610689,-222.793893129771,-1526.605504587156,-915.9633027522935,-10.73394495412844,0.0
1760115243.9623969,389,-165.58417582417584,34.525450549450554,13.805868131868134,14.412213740458014,9.65648854961832,218.8473282442748,-962.9357798165138,1785.0458715596328,-11.009174311926609,0.0
1760115243.9837065,390,69.91331868131869,34.54701098901099,13.805868131868134,14.412213740458014,9.725190839694656,29.29770992366412,915.9633027522935,1010.0,-11.10091743119266,0.0
1760115243.9943738,391,1.0564615384615386,-165.58417582417584,34.56138461538462,14.641221374045802,14.458015267175572,9.580152671755725,1197.6146788990827,140.91743119266056,281.92660550458714,0.0
1760115244.0156205,392,69.91331868131869,34.58294505494506,13.82024175824176,14.435114503816791,9.748091603053435,-201.29007633587787,1315.2293577981652,2912.293577981652,-11.284403669724773,0.0
1760115244.0474296,393,1.0564615384615386,-165.58417582417584,34.59731868131868,14.687022900763358,14.488549618320612,9.687022900763358,1291.834862385321,2912.2018348623856,1291.7431192660551,0.0
1760115244.0581322,394,1.0564615384615386,69.91331868131869,34.61887912087912,14.641221374045802,14.488549618320612,9.488549618320612,2254.678899082569,-1197.8899082568807,2348.623853211009,0.0
1760115244.06894,395,1.0636483516483517,-165.58417582417584,34.63325274725275,14.618320610687023,14.488549618320612,9.541984732824428,305.13761467889907,-2513.02752293578,2160.8256880733943,0.0
1760115244.1007216,396,1.0277142857142858,69.91331868131869,34.654813186813186,14.610687022900764,14.473282442748092,9.557251908396946,1831.6513761467888,-892.4770642201836,2724.4954128440368,0.0
1760115244.1113946,397,1.0492747252747252,-165.58417582417584,34.66918681318681,14.69465648854962,14.51908396946565,9.6793893129771,2841.559633027523,-187.88990825688077,1855.5045871559632,0.0
1760115244.1325686,398,1.0995824175824176,69.91331868131869,34.69074725274725,14.732824427480915,14.549618320610689,9.801526717557252,-1550.091743119266,-2301.7431192660547,140.91743119266056,0.0
1760115244.1642656,399,1.0564615384615386,-165.58417582417584,34.70512087912088,14.64885496183206,14.557251908396946,9.618320610687023,141.10091743119267,2677.3394495412845,23.486238532110093,0.0
1760115244.1749687,400,1.078021978021978,69.91331868131869,34.72668131868132,14.603053435114504,14.488549618320612,9.549618320610689,868.8990825688073,-2677.4311926605506,-1009.908256880734,0.0
1760115244.1963005,401,1.034901098901099,-165.58417582417584,34.74105494505495,14.641221374045802,14.557251908396946,9.580152671755725,1291.467889908257,-46.972477064220186,2395.6880733944954,0.0
1760115244.2070022,402,1.0636483516483517,69.91331868131869,34.76261538461539,14.63358778625954,14.595419847328245,9.427480916030534,586.5137614678898,-1761.3761467889908,728.348623853211,0.0
1760115244.2283037,403,1.085208791208791,-165.58417582417584,34.77698901098901,14.69465648854962,14.702290076335878,9.541984732824428,-470.8256880733945,-2348.440366972477,-633.7614678899082,0.0
1760115244.260037,404,1.085208791208791,69.91331868131869,34.79854945054945,14.6793893129771,14.877862595419847,9.534351145038167,1877.7064220183488,-1502.9357798165138,-1408.7155963302753,0.0
1760115244.2708046,405,1.0492747252747252,-165.58417582417584,34.81292307692308,14.732824427480915,14.969465648854962,9.549618320610689,210.55045871559636,540.4587155963303,916.330275229358,0.0
1760115244.292061,406,1.0277142857142858,69.91331868131869,34.83448351648352,14.67175572519084,14.9618320610687,9.442748091603054,633.2110091743119,-2301.467889908257,1785.3211009174313,0.0
1760115244.3028247,407,1.0708351648351648,-165.58417582417584,34.84885714285714,14.50381679389313,15.02290076335878,9.061068702290076,-1857.3394495412845,-586.8807339449542,916.697247706422,0.0
1760115244.3240905,408,1.0564615384615386,69.91331868131869,34.87041758241758,14.549618320610689,15.32824427480916,9.206106870229007,67.61467889908258,987.0642201834862,-1924.770642201835,0.0
1760115244.355934,409,1.0564615384615386,-165.58417582417584,34.884791208791206,14.625954198473282,15.717557251908396,9.259541984732824,-684.7706422018349,611.2844036697248,-2441.0091743119265,0.0
1760115244.3666427,410,1.0492747252747252,69.91331868131869,34.906351648351645,14.67175572519084,16.229007633587788,9.129770992366412,2062.018348623853,2936.51376146789,-1994.2201834862385,0.0
1760115244.3878124,411,1.020527472527473,-165.58417582417584,34.92072527472527,15.106870229007631,16.290076335877863,9.6793893129771,2203.211009174312,-2488.8990825688074,1833.9449541284405,0.0
1760115244.4195173,412,0.9774065934065936,69.91331868131869,34.94228571428572,15.374045801526718,16.717557251908396,10.061068702290076,-1388.8990825688074,-23.39449541284404,-2276.6972477064223,0.0
1760115244.43027,413,0.9055384615384616,-165.58417582417584,34.95665934065934,15.0381679389313,17.17557251908397,9.557251908396946,1359.0825688073394,2207.8899082568805,2420.5504587155965,0.0
1760115244.441161,414,0.8767912087912089,69.91331868131869,34.97821978021978,15.091603053435117,17.50381679389313,9.687022900763358,1100.2752293577985,-2700.642201834862,-1900.5504587155965,0.0
1760115244.473083,415,0.8121098901098901,-165.58417582417584,34.99259340659341,15.274809160305344,17.80916030534351,9.916030534351146,160.64220183486236,2982.844036697248,-2276.146788990826,0.0
1760115244.4838295,416,0.7546153846153847,69.91331868131869,35.01415384615385,15.229007633587786,18.18320610687023,9.938931297709924,-2869.266055045872,-657.7981651376147,143.21100917431193,0.0
1760115244.505094,417,0.6611868131868132,-165.58417582417584,35.02852747252748,15.35114503816794,18.396946564885496,10.099236641221374,677.3394495412844,-2278.256880733945,-1312.9357798165138,0.0
1760115244.51587,418,0.6252527472527473,69.91331868131869,35.05008791208792,15.534351145038167,18.49618320610687,10.51908396946565,-2516.238532110092,-2160.9174311926604,2632.477064220184,0.0
1760115244.5371132,419,0.5461978021978022,-165.58417582417584,35.06446153846154,15.641221374045802,18.65648854961832,10.580152671755725,1524.1284403669729,586.9724770642202,1575.2293577981652,0.0
1760115244.5689583,420,69.91331868131869,35.08602197802198,14.668285714285716,19.11450381679389,10.526717557251908,-2.15267175572519,-235.3211009174312,682.6605504587155,-19.08256880733945,0.0
1760115244.5796227,421,-165.58417582417584,35.10039560439561,14.646725274725275,19.366412213740457,10.587786259541986,-33.45038167938932,-2255.229357798165,-608.7155963302753,-19.63302752293578,0.0
1760115244.6009936,422,69.91331868131869,35.12195604395605,14.833582417582418,19.519083969465647,10.870229007633588,-191.74809160305344,-1879.5412844036696,1834.1284403669724,-20.642201834862387,0.0
1760115244.6328225,423,-165.58417582417584,35.13632967032967,15.070747252747257,19.64885496183206,11.076335877862595,-137.01526717557252,-2513.853211009174,-960.9174311926604,-20.275229357798167,0.0
1760115244.6435077,424,69.91331868131869,35.15789010989011,15.257604395604396,19.564885496183205,11.244274809160306,-62.6793893129771,915.2293577981652,1786.3302752293578,-20.55045871559633,0.0
1760115244.6648393,425,-165.58417582417584,35.17226373626374,15.178549450549452,19.7175572519084,11.267175572519085,-109.50381679389314,-2654.4954128440368,2607.5229357798166,-20.825688073394492,0.0
1760115244.6965566,426,69.91331868131869,35.193824175824176,15.070747252747257,19.99236641221374,11.236641221374043,-132.93893129770993,-2513.577981651376,1996.788990825688,-21.28440366972477,0.0
1760115244.707302,427,0.0,65.58685714285714,70.04986813186814,142.7175572519084,-123.0381679389313,-17.549618320610687,-148.1651376146789,183.39449541284404,686.1467889908257,0.0
1760115244.7285974,428,0.0,70.18641758241759,73.72951648351649,132.94656488549617,-103.49618320610686,-19.50381679389313,-143.85321100917432,201.65137614678895,485.41284403669727,0.0
1760115244.7605877,429,74.78597802197802,53.49145054945056,180.36026373626373,-97.63358778625954,-21.45801526717557,-15.33587786259542,247.88990825688077,407.1559633027522,1596.97247706422,0.0
1760115244.7713351,430,79.38553846153846,62.69057142857144,169.32131868131867,-70.27480916030534,-21.45801526717557,-13.610687022900764,282.0183486238532,469.72477064220186,1784.8623853211009,0.0
1760115244.782174,431,83.98509890109891,132.6038901098901,121.48589010989012,-50.732824427480914,-11.687022900763358,-11.702290076335878,166.23853211009174,321.559633027523,1972.7522935779816,0.0
1760115244.793026,432,88.58465934065934,141.803010989011,141.72395604395606,-31.19083969465649,1.9923664122137408,-6.450381679389313,-29.72477064220184,317.6146788990825,1949.266055045872,0.0
1760115244.8140595,433,93.1842197802198,105.00652747252748,189.5593846153846,-46.82442748091603,1.9923664122137408,-7.786259541984733,-25.045871559633028,419.4495412844037,1831.8348623853208,0.0
1760115244.84574,434,97.78378021978024,77.40916483516484,202.43815384615388,-62.458015267175576,-1.916030534351145,-4.740458015267175,18.623853211009177,487.2477064220184,1784.8623853211009,0.0
1760115244.8564432,435,102.38334065934066,77.40916483516484,171.16114285714286,-64.41221374045801,-1.916030534351145,-0.099236641221374,24.86238532110092,460.3669724770643,1878.8073394495411,0.0
1760115244.8777854,436,106.98290109890112,93.96758241758242,165.64167032967035,-39.00763358778626,1.9923664122137408,-1.045801526717557,11.376146788990829,475.41284403669727,1784.8623853211009,0.0
1760115244.888481,437,111.58246153846154,103.1667032967033,171.16114285714286,-35.099236641221374,3.946564885496183,-0.183206106870229,-45.13761467889909,470.6422018348624,1996.238532110092,0.0
1760115244.9098306,438,116.182021978022,110.526,125.16553846153847,-39.00763358778626,11.763358778625957,-3.198473282442748,-144.22018348623854,470.8256880733945,2019.7247706422015,0.0
1760115244.9415238,439,120.78158241758244,90.28793406593408,128.8451868131868,-40.96183206106871,17.625954198473284,-5.419847328244275,-263.2110091743119,559.2660550458716,1996.238532110092,0.0
1760115244.952258,440,125.38114285714288,57.1710989010989,119.64606593406592,-62.458015267175576,19.580152671755727,-5.717557251908397,-300.091743119266,629.9082568807339,1737.8899082568807,0.0
1760115244.973522,441,129.9807032967033,44.29232967032967,123.32571428571428,-83.95419847328245,21.53435114503817,-5.8320610687022905,-302.7522935779817,665.4128440366973,1902.2935779816517,0.0
1760115245.005371,442,134.58026373626373,75.56934065934067,68.13098901098901,-97.63358778625954,31.30534351145038,-8.564885496183207,-431.7431192660551,903.4862385321102,1737.8899082568807,0.0
1760115245.016068,443,-165.58417582417584,35.49567032967033,14.991692307692308,19.290076335877863,11.297709923664122,-191.2824427480916,-1903.02752293578,2580.2752293577983,-19.63302752293578,0.0
1760115245.0374105,444,69.91331868131869,35.51723076923077,14.438307692307694,19.34351145038168,10.99236641221374,236.763358778626,-799.2660550458716,-873.0275229357798,-17.79816513761468,0.0
1760115245.0692103,445,-165.58417582417584,35.5316043956044,13.97835164835165,19.236641221374047,10.84732824427481,-3.5572519083969465,-305.9633027522936,-2117.981651376147,-16.69724770642202,0.0
1760115245.0799606,446,69.91331868131869,35.55316483516484,13.626197802197805,18.95419847328244,10.50381679389313,53.14503816793893,-1762.1100917431193,2039.1743119266057,-15.412844036697248,0.0
1760115245.1013455,447,-165.58417582417584,35.56753846153846,13.274043956043958,18.435114503816795,10.221374045801529,-167.65648854961833,-1550.5504587155965,-1859.3577981651372,-13.027522935779816,0.0
1760115245.1120477,448,69.91331868131869,35.5890989010989,13.295604395604396,17.763358778625953,10.229007633587786,166.61832061068702,-117.43119266055048,1850.9174311926608,-12.477064220183486,0.0
1760115245.1333666,449,0.5965054945054945,-165.58417582417584,35.603472527472526,13.526717557251908,17.229007633587788,10.061068702290076,2143.761467889908,70.55045871559633,2297.2477064220184,0.0
1760115245.1546106,450,0.7043076923076923,69.91331868131869,35.62503296703297,13.64885496183206,17.297709923664122,9.412213740458014,430.5504587155963,1335.9633027522937,-2659.266055045872,0.0
1760115245.1654658,451,0.8408571428571429,-165.58417582417584,35.6394065934066,13.419847328244275,16.374045801526716,9.870229007633588,-2132.844036697248,45.3211009174312,-1857.9816513761468,0.0
1760115245.1867943,452,0.8624175824175825,69.91331868131869,35.66096703296704,12.98473282442748,15.893129770992369,8.931297709923664,542.7522935779817,-1973.394495412844,-1316.97247706422,0.0
1760115245.218495,453,0.8624175824175825,-165.58417582417584,35.67534065934066,13.450381679389311,15.63358778625954,9.526717557251908,-2300.4587155963304,-2912.477064220184,-869.8165137614678,0.0
1760115245.229244,454,0.8911648351648351,69.91331868131869,35.6969010989011,13.610687022900764,15.557251908396946,9.63358778625954,-1267.6146788990825,-2912.2018348623856,1244.403669724771,0.0
1760115245.2504792,455,0.9127252747252748,-165.58417582417584,35.71127472527473,13.732824427480915,15.603053435114504,9.763358778625957,963.4862385321102,-352.2935779816514,1855.229357798165,0.0
1760115245.261202,456,0.8552307692307692,69.91331868131869,35.732835164835166,13.49618320610687,15.564885496183209,9.450381679389311,-235.1376146788991,-1174.0366972477063,-2465.779816513761,0.0
1760115245.2824953,457,0.8911648351648351,-165.58417582417584,35.74720879120879,13.458015267175572,15.572519083969466,9.450381679389311,2699.633027522936,2513.853211009174,2326.146788990826,0.0
1760115245.3142853,458,0.8983516483516484,69.91331868131869,35.76876923076923,13.610687022900764,15.564885496183209,9.64885496183206,-2444.4954128440368,-938.348623853211,-2699.4495412844035,0.0
1760115245.324963,459,0.8767912087912089,-165.58417582417584,35.783142857142856,13.65648854961832,15.83969465648855,9.564885496183209,-1669.9082568807337,1152.1100917431193,1129.0825688073394,0.0
1760115245.3461845,460,0.8552307692307692,69.91331868131869,35.804703296703295,13.709923664122137,16.18320610687023,9.49618320610687,-1459.3577981651376,2326.605504587156,-2510.7339449541287,0.0
1760115245.3569143,461,0.8911648351648351,-165.58417582417584,35.81907692307692,14.0381679389313,16.65648854961832,9.67175572519084,2204.0366972477063,-2582.018348623853,-2815.6880733944954,0.0
1760115245.3781414,462,0.8911648351648351,69.91331868131869,35.840637362637366,14.076335877862595,17.358778625954198,9.473282442748092,-615.1376146788991,-1666.3302752293578,2844.9541284403667,0.0
1760115245.4098506,463,0.9055384615384616,-165.58417582417584,35.85501098901099,14.36641221374046,17.938931297709924,9.801526717557252,-686.4220183486239,1315.4128440366974,-66.78899082568807,0.0
1760115245.4415953,464,0.8121098901098901,69.91331868131869,35.87657142857143,14.419847328244275,17.908396946564885,10.0381679389313,-1790.8256880733943,-1597.2477064220184,-934.9541284403668,0.0
1760115245.452336,465,0.7186813186813188,-165.58417582417584,35.89094505494506,14.793893129770993,18.27480916030534,10.30534351145038,-1296.880733944954,2536.2385321100915,145.22935779816515,0.0
1760115245.4735737,466,0.6108791208791209,69.91331868131869,35.912505494505496,15.13740458015267,18.49618320610687,10.450381679389311,1194.1284403669724,-1761.8348623853212,1153.9449541284405,0.0
1760115245.4842932,467,0.5102637362637363,-165.58417582417584,35.92687912087912,15.122137404580153,18.87786259541985,10.69465648854962,44.03669724770643,680.6422018348624,2562.568807339449,0.0
1760115245.5055232,468,69.91331868131869,35.94843956043956,14.330505494505497,19.18320610687023,10.854961832061068,-58.847328244274806,2301.100917431193,1740.2752293577985,-15.137614678899084,0.0
1760115245.516254,469,-165.58417582417584,35.962813186813186,14.244263736263736,19.64885496183206,10.893129770992369,-242.54961832061068,2723.5779816513764,-279.44954128440367,-16.422018348623855,0.0
1760115245.5374775,470,69.91331868131869,35.984373626373625,14.323318681318682,19.977099236641223,11.030534351145038,-238.65648854961836,2840.8256880733943,2609.816513761468,-16.972477064220186,0.0
1760115245.5692198,471,-165.58417582417584,35.99874725274725,14.395186813186813,20.12213740458015,11.30534351145038,-0.2519083969465648,1619.3577981651376,-1734.8623853211009,-18.073394495412845,0.0
1760115245.5799625,472,69.91331868131869,36.02030769230769,14.70421978021978,20.01526717557252,11.473282442748092,-21.709923664122137,938.440366972477,49.72477064220184,-18.440366972477065,0.0
1760115245.6012385,473,-193.82835164835168,33.25338461538462,47.89292307692308,-58.54961832061068,-37.09160305343512,-17.51145038167939,460.91743119266056,1043.302752293578,1902.2935779816517,0.0
1760115245.6329963,474,-189.2287912087912,31.41356043956044,93.88852747252749,-11.64885496183206,-19.50381679389313,-9.64885496183206,150.09174311926606,772.8440366972477,1996.238532110092,0.0
1760115245.6436594,475,-184.6292307692308,-53.21835164835166,161.9548351648352,19.61832061068702,-15.587786259541986,-9.3206106870229,28.9908256880734,912.1100917431193,2113.6697247706425,0.0
1760115245.6650212,476,-180.02967032967032,42.452505494505495,218.99657142857143,13.755725190839694,-13.63358778625954,-2.015267175572519,174.12844036697248,730.4587155963302,2066.697247706422,0.0
1760115245.6757252,477,-175.4301098901099,42.452505494505495,231.87534065934068,21.572519083969464,-9.725190839694656,-5.0458015267175576,110.8256880733945,857.6146788990826,2231.100917431193,0.0
1760115245.6970234,478,-170.83054945054946,18.53479120879121,218.99657142857143,31.34351145038168,-7.770992366412214,-4.33587786259542,75.68807339449542,625.9633027522935,2278.0733944954127,0.0
1760115245.7183175,479,-166.23098901098902,38.77285714285715,130.685010989011,15.709923664122137,5.908396946564886,-2.4580152671755724,-152.01834862385323,648.7155963302753,2113.6697247706425,0.0
1760115245.7290916,480,-161.63142857142856,53.49145054945056,130.685010989011,39.16030534351145,19.587786259541986,-0.4809160305343511,-438.348623853211,764.7706422018349,2207.6146788990827,0.0
1760115245.7503262,481,-157.03186813186815,9.33567032967033,139.88413186813187,35.25190839694657,25.450381679389317,-0.6259541984732825,-562.1100917431193,942.5688073394494,2066.697247706422,0.0
1760115245.7819972,482,-152.4323076923077,-36.65993406593407,108.59993406593406,-1.8778625954198476,31.30534351145038,-2.5114503816793894,-701.4678899082569,1161.467889908257,2090.183486238532,0.0
1760115245.7927136,483,-147.83274725274725,-108.41307692307691,115.9592307692308,-39.00763358778626,43.03053435114504,-3.3740458015267176,-854.7706422018349,1451.2844036697247,1831.8348623853208,0.0
1760115245.8140037,484,-143.23318681318682,-218.8025274725275,108.59993406593406,-97.63358778625954,48.89312977099237,-0.9694656488549618,-897.2477064220184,1636.697247706422,1808.348623853211,0.0
1760115245.8245883,485,-138.63362637362638,213.55615384615388,86.52204395604397,-121.08396946564883,50.847328244274806,1.6412213740458017,-903.4862385321102,2023.577981651376,1526.51376146789,0.0
1760115245.8459413,486,0.0,-134.03406593406592,169.40037362637364,66.49618320610686,-154.3053435114504,52.80152671755725,-23.119266055045877,-900.7339449541284,2248.623853211009,0.0
1760115245.8777406,487,-165.58417582417584,36.28621978021978,13.202175824175828,19.610687022900763,10.99236641221374,-113.14503816793894,-1996.422018348624,2345.229357798165,-12.568807339449542,0.0
1760115245.888423,488,69.91331868131869,36.30778021978022,12.864395604395606,19.427480916030536,10.748091603053435,-224.55725190839692,-281.92660550458714,584.2201834862385,-10.917431192660551,0.0
1760115245.9097538,489,-165.58417582417584,36.32215384615385,12.778153846153849,19.282442748091604,10.610687022900764,113.49618320610686,2043.48623853211,936.9724770642202,-10.0,0.0
1760115245.941466,490,69.91331868131869,36.34371428571429,12.821274725274726,19.06106870229008,10.580152671755725,148.64885496183206,-1996.0550458715595,-1857.6146788990827,-9.174311926605505,0.0
1760115245.9521265,491,-165.58417582417584,36.35808791208792,12.864395604395606,18.83969465648855,10.580152671755725,-123.00763358778626,-1103.6697247706422,444.4954128440367,-8.53211009174312,0.0
1760115245.9732573,492,0.4096483516483516,69.91331868131869,36.37964835164836,13.793893129770993,18.6412213740458,10.572519083969466,2655.137614678899,-1033.211009174312,-659.2660550458716,0.0
1760115245.9838667,493,0.3952747252747253,-165.58417582417584,36.39402197802198,13.770992366412214,18.53435114503817,10.549618320610689,2514.1284403669724,1972.9357798165136,-1551.559633027523,0.0
1760115246.004974,494,0.424021978021978,69.91331868131869,36.41558241758242,13.717557251908396,18.34351145038168,10.473282442748092,-774.0366972477065,610.6422018348624,-776.4220183486239,0.0
1760115246.0363276,495,0.4527692307692308,-165.58417582417584,36.42995604395605,13.564885496183209,18.366412213740457,10.404580152671755,635.045871559633,-2724.587155963303,2511.9266055045878,0.0
1760115246.0469396,496,0.5174505494505495,69.91331868131869,36.451516483516485,13.419847328244275,18.30534351145038,10.290076335877863,822.7522935779816,-2184.4036697247707,2065.9633027522937,0.0
1760115246.0682223,497,0.4958901098901099,-165.58417582417584,36.46589010989011,13.251908396946565,18.251908396946565,10.244274809160306,2208.1651376146788,-845.6880733944954,1385.2293577981652,0.0
1760115246.1003208,498,0.5174505494505495,69.91331868131869,36.48745054945055,13.251908396946565,18.0763358778626,10.244274809160306,-2019.7247706422015,-328.89908256880733,-1056.97247706422,0.0
1760115246.1109505,499,0.5893186813186814,-165.58417582417584,36.501824175824176,13.30534351145038,18.0,10.34351145038168,1855.3211009174315,-2348.623853211009,2865.5963302752293,0.0
1760115246.1323326,500,0.5102637362637363,69.91331868131869,36.52338461538462,13.465648854961833,18.03053435114504,10.396946564885496,-2254.8623853211006,-1291.7431192660551,258.7155963302752,0.0
1760115246.153901,501,0.5461978021978022,-165.58417582417584,36.53775824175825,13.511450381679388,18.12213740458015,10.404580152671755,962.7522935779816,2794.862385321101,-680.7339449541284,0.0
1760115246.1644616,502,0.4958901098901099,69.91331868131869,36.559318681318686,13.458015267175572,18.236641221374047,10.35114503816794,2066.422018348624,-1949.3577981651376,1668.1651376146788,0.0
1760115246.1867838,503,0.4958901098901099,-165.58417582417584,36.57369230769231,13.358778625954198,18.31297709923664,10.213740458015268,468.99082568807336,681.2844036697248,-1619.4495412844035,0.0
1760115246.1976671,504,0.5030769230769231,69.91331868131869,36.59525274725275,13.061068702290076,18.633587786259543,9.938931297709924,-2608.623853211009,1644.4954128440368,-1031.2844036697247,0.0
1760115246.2285898,505,0.4743296703296704,-165.58417582417584,36.60962637362638,13.412213740458014,18.778625954198475,10.244274809160306,537.7064220183487,446.88073394495416,238.348623853211,0.0
1760115246.2389984,506,0.4383956043956044,69.91331868131869,36.631186813186815,14.061068702290076,18.923664122137403,10.66412213740458,-2163.394495412844,2325.5045871559632,1718.256880733945,0.0
1760115246.2612884,507,-165.58417582417584,36.64556043956044,13.568703296703298,19.00763358778626,10.900763358778626,-33.41984732824427,-1174.3119266055046,-2721.192660550458,-11.10091743119266,0.0
1760115246.2929916,508,69.91331868131869,36.66712087912088,13.726813186813189,19.04580152671756,11.02290076335878,-121.32824427480917,164.2201834862385,2726.97247706422,-11.65137614678899,0.0
1760115246.303476,509,-165.58417582417584,36.681494505494506,13.805868131868134,19.221374045801525,11.02290076335878,-35.3206106870229,-657.9816513761468,2468.1651376146788,-13.027522935779816,0.0
1760115246.3242378,510,69.91331868131869,36.703054945054944,13.791494505494503,19.52671755725191,10.946564885496183,-146.6946564885496,-1480.0,-3004.3119266055046,-13.119266055045872,0.0
1760115246.3551185,511,-165.58417582417584,36.71742857142857,13.985538461538464,19.64885496183206,11.122137404580153,160.13740458015266,1808.1651376146788,-961.1926605504588,-13.853211009174313,0.0
1760115246.3654797,512,69.91331868131869,36.738989010989016,14.086153846153849,19.80152671755725,11.244274809160306,181.65648854961836,633.9449541284404,-22.110091743119263,-14.220183486238533,0.0
1760115246.3862183,513,-165.58417582417584,36.75336263736264,14.150835164835163,19.78625954198473,11.33587786259542,-172.0229007633588,305.13761467889907,1386.605504587156,-14.862385321100918,0.0
1760115246.3966956,514,69.91331868131869,36.77492307692308,14.158021978021978,19.81679389312977,11.34351145038168,31.251908396946565,1761.2844036697247,845.8715596330276,-15.321100917431194,0.0
1760115246.4174423,515,-165.58417582417584,36.78929670329671,14.021472527472527,19.83969465648855,11.32824427480916,121.16793893129773,2959.08256880734,587.0642201834863,-15.504587155963304,0.0
1760115246.4485283,516,69.91331868131869,36.810857142857145,14.057406593406592,19.80916030534351,11.32824427480916,109.45801526717555,2395.412844036697,1244.3119266055046,-15.77981651376147,0.0
1760115246.45884,517,8.552307692307693,-180.15903296703297,71.80345054945055,-107.40458015267176,7.854961832061068,-3.236641221374046,-187.4311926605505,2243.9449541284403,1573.48623853211,0.0
1760115246.4795592,518,69.91331868131869,36.84679120879121,14.0070989010989,19.84732824427481,11.282442748091604,183.7328244274809,-1902.6605504587155,868.1651376146789,-15.412844036697248,0.0
1760115246.4900875,519,-165.58417582417584,36.86116483516484,13.97835164835165,19.81679389312977,11.183206106870228,-82.03053435114504,1643.761467889908,-1011.0091743119266,-14.311926605504588,0.0
1760115246.5118177,520,69.91331868131869,36.88272527472528,13.971164835164837,19.72519083969466,11.229007633587786,46.97709923664122,2066.5137614678897,-118.9908256880734,-14.311926605504588,0.0
1760115246.5427225,521,-165.58417582417584,36.8970989010989,13.791494505494503,19.610687022900763,11.13740458015267,-103.48091603053436,-1926.1467889908256,-2209.633027522936,-13.669724770642205,0.0
1760115246.5530586,522,69.91331868131869,36.91865934065934,13.640571428571429,19.41221374045801,11.114503816793894,138.87022900763358,211.19266055045875,-2538.8073394495414,-12.935779816513762,0.0
1760115246.5737631,523,-165.58417582417584,36.93303296703297,13.3530989010989,19.3206106870229,10.877862595419847,230.7404580152672,446.1467889908257,2674.9541284403667,-12.385321100917432,0.0
1760115246.6049004,524,69.91331868131869,36.95459340659341,13.130307692307692,19.30534351145038,10.900763358778626,240.53435114503816,305.41284403669727,-190.45871559633028,-11.284403669724773,0.0
1760115246.6153498,525,-165.58417582417584,36.96896703296704,13.015318681318682,19.106870229007637,10.778625954198471,90.06870229007633,-774.954128440367,-1529.0825688073394,-11.009174311926609,0.0
1760115246.6466568,526,69.91331868131869,36.99052747252748,12.993758241758242,18.82442748091603,10.717557251908396,17.778625954198475,-211.19266055045875,-1998.8990825688077,-10.18348623853211,0.0
1760115246.657263,527,-165.58417582417584,37.0049010989011,12.864395604395606,18.610687022900763,10.50381679389313,172.18320610687022,-2630.183486238532,772.2935779816514,-9.44954128440367,0.0
1760115246.678434,528,0.4024615384615385,69.91331868131869,37.02646153846154,13.534351145038167,18.37404580152672,10.404580152671755,-2956.605504587156,-2653.669724770642,-2163.48623853211,0.0
1760115246.6891437,529,0.4743296703296704,-165.58417582417584,37.040835164835165,13.49618320610687,18.083969465648856,10.358778625954198,1881.559633027523,869.3577981651376,2933.211009174312,0.0
1760115246.7102785,530,0.5102637362637363,69.91331868131869,37.0623956043956,13.396946564885496,17.893129770992367,10.244274809160306,2703.211009174312,2841.926605504587,-1434.8623853211009,0.0
1760115246.7314804,531,0.5965054945054945,-165.58417582417584,37.07676923076923,13.404580152671755,17.603053435114504,10.183206106870228,-2957.2477064220184,2513.119266055046,1712.6605504587158,0.0
1760115246.7631683,532,0.6252527472527473,69.91331868131869,37.09832967032967,13.435114503816791,17.389312977099237,10.16793893129771,2890.733944954128,516.6972477064221,-1011.651376146789,0.0
1760115246.7738807,533,0.6468131868131869,-165.58417582417584,37.112703296703295,13.412213740458014,17.18320610687023,10.129770992366412,-2957.3394495412845,-1127.4311926605503,-917.6146788990826,0.0
1760115246.7950473,534,0.7330549450549451,69.91331868131869,37.13426373626374,13.274809160305344,16.96946564885496,10.01526717557252,-773.302752293578,446.1467889908257,797.1559633027523,0.0
1760115246.8057957,535,0.7330549450549451,-165.58417582417584,37.148637362637366,13.17557251908397,16.786259541984734,9.923664122137405,-163.0275229357798,1338.6238532110092,-1457.2477064220184,0.0
1760115246.827092,536,0.7546153846153847,69.91331868131869,37.170197802197805,13.17557251908397,16.671755725190838,9.916030534351146,1363.119266055046,821.9266055045871,1596.422018348624,0.0
1760115246.8378851,537,0.7618021978021978,-165.58417582417584,37.18457142857143,13.15267175572519,16.61832061068702,9.931297709923664,-2700.4587155963304,1972.7522935779816,-1080.7339449541284,0.0
1760115246.8693829,538,0.7761758241758242,69.91331868131869,37.20613186813187,13.106870229007631,16.610687022900763,9.877862595419847,681.1926605504588,-328.89908256880733,-164.4954128440367,0.0
1760115246.9006865,539,0.7618021978021978,-165.58417582417584,37.220505494505495,13.0,16.641221374045802,9.801526717557252,-1644.5871559633026,2160.8256880733943,-3005.779816513761,0.0
1760115246.9215384,540,0.804923076923077,69.91331868131869,37.242065934065934,12.916030534351146,16.732824427480917,9.740458015267176,-2021.0091743119267,-258.0733944954128,-2605.871559633028,0.0
1760115246.9322286,541,0.7761758241758242,-165.58417582417584,37.25643956043956,12.763358778625957,17.053435114503817,9.49618320610687,-871.3761467889908,2020.5504587155965,166.69724770642202,0.0
1760115246.953155,542,0.7546153846153847,69.91331868131869,37.278,12.893129770992369,17.366412213740457,9.580152671755725,-1577.2477064220184,1.1009174311926606,-278.25688073394497,0.0
1760115246.9638395,543,0.7330549450549451,-165.58417582417584,37.292373626373625,13.465648854961833,17.65648854961832,10.00763358778626,-1272.5688073394497,2795.9633027522937,-2320.733944954128,0.0
1760115246.9849656,544,0.6755604395604397,69.91331868131869,37.31393406593406,14.183206106870228,17.893129770992367,10.3206106870229,1452.4770642201836,-915.1376146788992,168.34862385321102,0.0
1760115246.995516,545,0.5677582417582419,-165.58417582417584,37.32830769230769,14.64885496183206,18.129770992366414,10.48091603053435,-566.2385321100918,-1197.1559633027523,1411.8348623853212,0.0
1760115247.0164013,546,0.4958901098901099,69.91331868131869,37.349868131868135,14.65648854961832,18.45801526717557,10.63358778625954,2135.229357798165,-445.9633027522936,-820.0917431192661,0.0
1760115247.0478697,547,0.4743296703296704,-165.58417582417584,37.36424175824176,14.572519083969466,18.748091603053435,10.587786259541986,-847.5229357798165,47.1559633027523,-1689.0825688073396,0.0
1760115247.0585155,548,69.91331868131869,37.3858021978022,13.77712087912088,18.977099236641223,10.610687022900764,-52.93129770992366,-2912.2018348623856,448.348623853211,-13.302752293577983,0.0
1760115247.0795891,549,-165.58417582417584,37.40017582417583,14.100527472527473,18.85496183206107,10.786259541984732,-88.06870229007633,-516.6972477064221,-703.1192660550458,-14.403669724770642,0.0
1760115247.1114235,550,69.91331868131869,37.42173626373627,14.373626373626374,18.6793893129771,11.076335877862595,46.88549618320611,1056.697247706422,-1432.9357798165138,-14.954128440366974,0.0
1760115247.1221273,551,-165.58417582417584,37.4361098901099,13.963978021978024,18.77099236641221,10.900763358778626,-146.5114503816794,2089.908256880734,304.1284403669725,-14.954128440366974,0.0
1760115247.1432674,552,69.91331868131869,37.457670329670336,13.626197802197805,19.09923664122137,10.732824427480915,107.5648854961832,-2442.935779816514,1290.3669724770643,-14.862385321100918,0.0
1760115247.1747372,553,-165.58417582417584,37.47204395604396,13.424967032967034,19.12213740458015,10.526717557251908,39.16030534351145,-1245.045871559633,797.4311926605504,-14.036697247706424,0.0
1760115247.1853342,554,69.91331868131869,37.4936043956044,13.525582417582418,18.977099236641223,10.572519083969466,-9.702290076335878,-563.9449541284404,2911.2844036697247,-13.853211009174313,0.0
1760115247.206463,555,-165.58417582417584,37.507978021978026,13.662131868131867,18.6793893129771,10.63358778625954,105.6412213740458,-869.2660550458716,1478.1651376146788,-13.669724770642205,0.0
1760115247.217046,556,69.91331868131869,37.52953846153847,13.654945054945054,18.549618320610687,10.717557251908396,97.87786259541984,-1151.1926605504589,1336.605504587156,-12.385321100917432,0.0
1760115247.23815,557,-165.58417582417584,37.54391208791209,13.32435164835165,18.47328244274809,10.473282442748092,11.908396946564883,-1292.1100917431193,725.8715596330276,-12.293577981651376,0.0
1760115247.269732,558,0.4312087912087912,69.91331868131869,37.56547252747253,13.786259541984732,18.37404580152672,10.236641221374043,-2417.064220183486,-1057.1559633027523,1383.7614678899083,0.0
1760115247.2803245,559,0.4887032967032967,-165.58417582417584,37.57984615384616,13.67175572519084,18.16793893129771,10.091603053435117,1786.697247706422,-1315.4128440366974,1501.559633027523,0.0
1760115247.301612,560,0.5318241758241758,69.91331868131869,37.601406593406594,13.786259541984732,17.900763358778626,10.16030534351145,776.7889908256881,2348.532110091743,-1011.4678899082568,0.0
1760115247.3123636,561,0.5893186813186814,-165.58417582417584,37.61578021978022,13.755725190839694,17.786259541984734,10.183206106870228,-984.5871559633028,-1644.2201834862385,1524.954128440367,0.0
1760115247.3337212,562,0.5893186813186814,69.91331868131869,37.637340659340666,13.603053435114504,17.64885496183206,10.00763358778626,330.6422018348624,-1620.7339449541284,890.9174311926606,0.0
1760115247.3654785,563,0.6180659340659341,-165.58417582417584,37.65171428571429,13.50381679389313,17.458015267175572,9.923664122137405,1011.3761467889908,-1385.8715596330276,-1081.651376146789,0.0
1760115247.3762274,564,0.6755604395604397,69.91331868131869,37.67327472527473,13.564885496183209,17.30534351145038,9.9618320610687,-445.045871559633,2465.9633027522937,-658.7155963302753,0.0
1760115247.3974826,565,0.6755604395604397,-165.58417582417584,37.68764835164836,13.549618320610689,17.19083969465649,9.954198473282442,-703.5779816513761,-1479.816513761468,-2185.137614678899,0.0
1760115247.4186263,566,0.7114945054945055,69.91331868131869,37.7092087912088,13.458015267175572,17.0381679389313,9.854961832061068,118.348623853211,-1902.5688073394492,-2184.954128440367,0.0
1760115247.4294536,567,0.7186813186813188,-165.58417582417584,37.72358241758242,13.50381679389313,16.893129770992367,9.923664122137405,-2113.02752293578,-235.04587155963304,-1104.4954128440368,0.0
1760115247.4507463,568,0.7905494505494507,69.91331868131869,37.74514285714286,13.572519083969466,16.893129770992367,9.954198473282442,2983.394495412844,-798.6238532110092,-1738.532110091743,0.0
1760115247.461383,569,0.7186813186813188,-165.58417582417584,37.759516483516485,13.587786259541986,16.84732824427481,9.923664122137405,1198.440366972477,-281.92660550458714,985.9633027522935,0.0
1760115247.482612,570,0.7618021978021978,69.91331868131869,37.78107692307693,13.587786259541986,16.870229007633586,9.893129770992369,-2770.8256880733943,-1197.8899082568807,234.49541284403668,0.0
1760115247.5141103,571,0.7618021978021978,-165.58417582417584,37.79545054945055,13.557251908396946,16.717557251908396,9.885496183206106,2889.266055045872,1949.266055045872,-211.74311926605503,0.0
1760115247.5457177,572,0.7546153846153847,69.91331868131869,37.81701098901099,13.587786259541986,16.641221374045802,9.9618320610687,1268.8990825688072,2207.6146788990827,-446.6972477064221,0.0
1760115247.5563612,573,0.7977362637362638,-165.58417582417584,37.83138461538462,13.63358778625954,16.519083969465647,10.0,1715.3211009174313,1526.51376146789,2582.935779816514,0.0
1760115247.577316,574,0.8264835164835166,69.91331868131869,37.85294505494506,13.572519083969466,16.47328244274809,9.931297709923664,-1713.577981651376,-2395.871559633028,140.36697247706422,0.0
1760115247.6088097,575,0.8121098901098901,-165.58417582417584,37.867318681318686,13.732824427480915,16.48854961832061,9.900763358778626,-609.2660550458716,2253.853211009174,-1362.7522935779816,0.0
1760115247.6195617,576,0.7977362637362638,69.91331868131869,37.888879120879125,13.282442748091604,15.938931297709924,9.923664122137405,776.8807339449542,1408.2568807339449,-2349.4495412844035,0.0
1760115247.6303194,577,0.8264835164835166,-165.58417582417584,37.90325274725275,13.297709923664122,16.045801526717558,9.916030534351146,330.4587155963303,1901.926605504587,-658.5321100917431,0.0
1760115247.6515892,578,0.7905494505494507,69.91331868131869,37.92481318681319,13.244274809160306,15.916030534351146,9.854961832061068,-1196.0550458715595,1244.0366972477063,-1997.1559633027523,0.0
1760115247.6728785,579,0.8624175824175825,-165.58417582417584,37.939186813186815,13.19083969465649,15.64885496183206,9.98473282442748,-2299.908256880734,-2583.9449541284403,-1668.440366972477,0.0
1760115247.683557,580,0.8480439560439561,69.91331868131869,37.96074725274725,13.114503816793894,15.51908396946565,9.97709923664122,2115.5963302752293,2066.422018348624,-541.1926605504588,0.0
1760115247.704888,581,0.8408571428571429,-165.58417582417584,37.97512087912088,13.0381679389313,15.221374045801529,9.923664122137405,236.78899082568807,22.84403669724771,233.9449541284404,0.0
1760115247.736555,582,0.8480439560439561,69.91331868131869,37.99668131868132,13.0,15.13740458015267,10.099236641221374,-2159.266055045872,1314.862385321101,163.57798165137615,0.0
1760115247.7473087,583,0.8624175824175825,-165.58417582417584,38.011054945054944,13.00763358778626,14.908396946564883,10.02290076335878,1809.633027522936,-352.4770642201835,46.42201834862386,0.0
1760115247.7685256,584,0.8336703296703297,69.91331868131869,38.03261538461538,13.0,14.931297709923664,9.98473282442748,-2911.192660550458,446.2385321100918,-1268.8073394495414,0.0
1760115247.7792797,585,0.883978021978022,-165.58417582417584,38.046989010989016,13.16793893129771,14.893129770992369,10.061068702290076,2560.9174311926604,1103.8532110091744,-2184.6788990825685,0.0
1760115247.800531,586,0.8121098901098901,69.91331868131869,38.068549450549455,13.030534351145038,14.80916030534351,9.931297709923664,869.7247706422019,305.13761467889907,-1996.697247706422,0.0
1760115247.8322473,587,0.7905494505494507,-165.58417582417584,38.08292307692308,12.954198473282442,14.69465648854962,9.83969465648855,751.743119266055,94.03669724770644,1080.2752293577985,0.0
1760115247.842852,588,0.8552307692307692,69.91331868131869,38.10448351648352,13.16793893129771,14.702290076335878,10.0381679389313,-1808.5321100917429,1926.0550458715595,-1949.3577981651376,0.0
1760115247.86406,589,0.8408571428571429,-165.58417582417584,38.118857142857145,13.290076335877863,14.83206106870229,10.083969465648854,-2184.2201834862385,634.2201834862385,2959.266055045872,0.0
1760115247.8958516,590,0.8121098901098901,69.91331868131869,38.140417582417584,13.221374045801529,14.770992366412214,10.053435114503817,-1244.8623853211009,-2560.0,2231.192660550458,0.0
1760115247.906593,591,0.8192967032967032,-165.58417582417584,38.15479120879121,13.229007633587786,14.770992366412214,10.053435114503817,-1761.6513761467888,-1550.091743119266,-2113.6697247706425,0.0
1760115247.928014,592,0.8480439560439561,69.91331868131869,38.17635164835165,13.16030534351145,14.732824427480915,10.061068702290076,2559.816513761468,1972.844036697248,1644.2201834862385,0.0
1760115247.9387922,593,0.8121098901098901,-165.58417582417584,38.19072527472528,13.068702290076336,14.763358778625957,9.98473282442748,469.3577981651376,-23.486238532110093,2865.5963302752293,0.0
1760115247.9600558,594,0.8408571428571429,69.91331868131869,38.21228571428571,13.068702290076336,14.748091603053435,10.030534351145038,2770.8256880733943,-892.3853211009174,2466.422018348624,0.0
1760115247.9917471,595,0.8192967032967032,-165.58417582417584,38.22665934065934,13.061068702290076,14.877862595419847,10.00763358778626,-2819.08256880734,2982.935779816514,-187.4311926605505,0.0
1760115248.0024495,596,0.7761758241758242,69.91331868131869,38.248219780219785,13.13740458015267,14.9618320610687,9.9618320610687,-1574.5871559633026,-3005.9633027522937,-2606.330275229357,0.0
1760115248.023661,597,0.8480439560439561,-165.58417582417584,38.26259340659341,13.297709923664122,15.15267175572519,10.076335877862595,-188.8073394495413,-375.5963302752293,-1244.2201834862385,0.0
1760115248.0554955,598,0.8552307692307692,69.91331868131869,38.28415384615385,13.206106870229007,15.229007633587786,9.938931297709924,-1480.4587155963302,775.2293577981652,-1784.403669724771,0.0
1760115248.0662005,599,0.8696043956043957,-165.58417582417584,38.29852747252748,13.17557251908397,15.290076335877863,9.86259541984733,-2232.201834862385,-1080.1834862385322,1198.532110091743,0.0
1760115248.087259,600,0.8192967032967032,69.91331868131869,38.32008791208792,13.198473282442748,15.381679389312977,9.86259541984733,2699.7247706422017,751.8348623853211,-915.1376146788992,0.0
1760115248.108521,601,0.8192967032967032,-165.58417582417584,38.33446153846154,13.358778625954198,15.534351145038167,9.98473282442748,-2302.6605504587155,235.04587155963304,-116.78899082568807,0.0
1760115248.1193738,602,0.7977362637362638,69.91331868131869,38.35602197802198,13.312977099236642,15.549618320610689,9.946564885496183,1525.8715596330271,-1972.7522935779816,-1901.926605504587,0.0
1760115248.1408317,603,0.804923076923077,-165.58417582417584,38.3703956043956,13.290076335877863,15.740458015267176,9.938931297709924,1925.229357798165,-2935.6880733944954,2912.7522935779816,0.0
1760115248.1724048,604,0.8121098901098901,69.91331868131869,38.39195604395604,13.30534351145038,15.740458015267176,9.916030534351146,2888.1651376146788,-328.7155963302753,-2559.5412844036696,0.0
1760115248.1828568,605,0.8121098901098901,-165.58417582417584,38.40632967032967,13.221374045801529,15.82442748091603,9.80916030534351,-2302.477064220184,422.9357798165138,-398.7155963302752,0.0
1760115248.2038193,606,0.7977362637362638,69.91331868131869,38.42789010989011,13.312977099236642,15.97709923664122,9.908396946564883,-2560.8256880733943,-1573.394495412844,-210.82568807339447,0.0
1760115248.2142038,607,0.7761758241758242,-165.58417582417584,38.44226373626373,13.427480916030534,15.969465648854962,9.946564885496183,563.0275229357798,2888.990825688073,2536.97247706422,0.0
1760115248.2348876,608,0.8121098901098901,69.91331868131869,38.46382417582418,13.49618320610687,16.015267175572518,10.0,-611.1926605504588,1550.1834862385322,493.57798165137615,0.0
1760115248.2453868,609,0.7618021978021978,-165.58417582417584,38.478197802197805,13.572519083969466,16.137404580152673,10.030534351145038,-1268.6238532110092,-2325.1376146789,-1596.880733944954,0.0
1760115248.2663765,610,0.7833626373626373,69.91331868131869,38.49975824175824,13.587786259541986,16.236641221374047,9.98473282442748,1620.275229357798,-1878.9908256880733,2442.7522935779816,0.0
1760115248.2981255,611,0.7761758241758242,-165.58417582417584,38.51413186813187,13.51908396946565,16.251908396946565,9.938931297709924,1033.02752293578,-164.58715596330276,94.22018348623853,0.0
1760115248.3088706,612,0.7833626373626373,69.91331868131869,38.53569230769231,13.396946564885496,16.374045801526716,9.80916030534351,187.5229357798165,563.5779816513761,-1831.6513761467888,0.0
1760115248.3301349,613,0.7689890109890111,-165.58417582417584,38.550065934065934,13.389312977099236,16.297709923664122,9.893129770992369,164.2201834862385,-2066.880733944954,540.3669724770642,0.0
1760115248.361956,614,0.7546153846153847,69.91331868131869,38.57162637362637,13.312977099236642,16.30534351145038,9.82442748091603,586.9724770642202,446.2385321100918,1761.6513761467888,0.0
1760115248.3727417,615,0.7618021978021978,-165.58417582417584,38.586,13.312977099236642,16.33587786259542,9.908396946564883,375.5963302752293,-1996.330275229358,2583.669724770642,0.0
