timestamp,packet_id,accel_x,accel_y,accel_z,gyro_x,gyro_y,gyro_z,mag_x,mag_y,mag_z,battery,temperature
1760477400.2124388,0,-0.91351318359375,0.12445068359375,0.1243896484375,9.427480916030534,-136.793893129771,-19.549618320610687,845.5045871559633,-38.99082568807339,17.61467889908257,,
1760477400.2348568,0,-0.91339111328125,0.12432861328125,0.1243896484375,9.427480916030534,-127.02290076335878,-41.045801526717554,775.045871559633,-38.99082568807339,17.06422018348624,,
1760477400.2453463,0,-0.9132080078125,0.1243896484375,0.12445068359375,9.435114503816791,-134.83969465648855,-44.954198473282446,469.72477064220186,-39.08256880733945,17.889908256880734,,
1760477400.2661235,0,-0.9130859375,0.12445068359375,0.12445068359375,9.419847328244275,-140.70229007633588,-60.58778625954199,657.6146788990826,-38.71559633027523,18.1651376146789,,
1760477400.2770374,0,-0.91290283203125,0.12445068359375,0.12445068359375,9.419847328244275,-146.5648854961832,-56.6793893129771,493.2110091743119,-38.62385321100918,17.522935779816514,,
1760477400.3084545,0,-0.91278076171875,0.12451171875,0.12445068359375,9.412213740458014,-142.65648854961833,-21.50381679389313,798.5321100917431,-38.99082568807339,18.073394495412845,,
1760477400.3396418,0,-0.91259765625,0.12445068359375,0.12445068359375,9.412213740458014,-130.93129770992363,-41.045801526717554,704.5871559633028,-39.54128440366972,17.61467889908257,,
1760477400.350089,0,-0.9124755859375,0.12451171875,0.12451171875,9.412213740458014,-162.19847328244273,-48.86259541984733,516.6972477064221,-39.17431192660551,17.79816513761468,,
1760477400.3706706,0,-0.91229248046875,0.12445068359375,0.12445068359375,9.427480916030534,-144.61068702290078,-17.595419847328245,845.5045871559633,-39.17431192660551,18.807339449541285,,
1760477400.3810434,0,-0.91217041015625,0.12451171875,0.1243896484375,9.427480916030534,-156.33587786259542,-58.63358778625954,775.045871559633,-38.80733944954128,17.706422018348626,,
1760477400.4018612,0,-0.9119873046875,0.12451171875,0.1243896484375,9.412213740458014,-170.01526717557252,-1.9618320610687023,751.559633027523,-38.440366972477065,17.79816513761468,,
1760477400.433323,0,-0.911865234375,0.12445068359375,0.1243896484375,9.435114503816791,-136.793893129771,-66.45038167938931,516.6972477064221,-38.80733944954128,17.24770642201835,,
1760477400.464785,0,-0.91168212890625,0.12445068359375,0.12445068359375,9.435114503816791,-138.74809160305344,-23.45801526717557,657.6146788990826,-38.62385321100918,17.706422018348626,,
1760477400.4752426,0,-0.91156005859375,0.12445068359375,0.12457275390625,9.419847328244275,-99.66412213740458,-3.916030534351145,563.6697247706422,-39.17431192660551,17.889908256880734,,
1760477400.4961407,0,-0.911376953125,0.12451171875,0.1243896484375,9.435114503816791,-158.29007633587787,-13.687022900763358,681.1009174311927,-38.1651376146789,18.073394495412845,,
1760477400.5275102,0,-0.9112548828125,0.12451171875,0.12445068359375,9.419847328244275,-142.65648854961833,-41.045801526717554,892.4770642201836,-38.53211009174312,17.61467889908257,,
1760477400.5382285,0,-0.91107177734375,0.1243896484375,0.12451171875,9.419847328244275,-146.5648854961832,-17.595419847328245,868.9908256880734,-39.08256880733945,17.522935779816514,,
1760477400.559231,0,-0.91094970703125,0.1243896484375,0.12445068359375,9.412213740458014,-160.24427480916032,-54.725190839694655,493.2110091743119,-38.440366972477065,17.61467889908257,,
1760477400.5698287,0,-0.9107666015625,0.12457275390625,0.1243896484375,9.427480916030534,-148.51908396946564,-52.770992366412216,399.2660550458716,-38.53211009174312,17.339449541284406,,
1760477400.5912995,0,-0.91064453125,0.12451171875,0.12445068359375,9.419847328244275,-162.19847328244273,-31.27480916030534,892.4770642201836,-38.1651376146789,17.61467889908257,,
1760477400.6020184,0,-0.91046142578125,0.12445068359375,0.12457275390625,9.419847328244275,-109.4351145038168,-39.09160305343512,563.6697247706422,-38.53211009174312,17.79816513761468,,
1760477400.6233811,0,-0.91033935546875,0.12457275390625,0.12432861328125,9.427480916030534,-140.70229007633588,-3.916030534351145,305.3211009174312,-38.440366972477065,18.256880733944957,,
1760477400.6446297,0,-0.91015625,0.1243896484375,0.12457275390625,9.419847328244275,-146.5648854961832,-19.549618320610687,352.2935779816514,-38.899082568807344,17.61467889908257,,
1760477400.655353,0,-0.9100341796875,0.12451171875,0.12445068359375,9.427480916030534,-138.74809160305344,-33.229007633587784,140.91743119266056,-37.98165137614679,17.706422018348626,,
1760477400.7082489,0,-0.90985107421875,0.12451171875,0.12451171875,9.419847328244275,-127.02290076335878,-35.18320610687023,422.7522935779817,-38.62385321100918,18.440366972477065,,
1760477400.718984,0,-0.90972900390625,0.12445068359375,0.12451171875,9.412213740458014,-140.70229007633588,-50.81679389312977,469.72477064220186,-39.26605504587156,17.98165137614679,,
1760477400.7297077,0,-0.9095458984375,0.12432861328125,0.12451171875,9.427480916030534,-138.74809160305344,-13.687022900763358,728.0733944954129,-38.62385321100918,18.1651376146789,,
1760477400.7406316,0,-0.909423828125,0.12451171875,0.1243896484375,9.450381679389311,-130.93129770992363,-39.09160305343512,446.2385321100918,-38.80733944954128,18.073394495412845,,
1760477400.7724168,0,-0.90924072265625,0.12445068359375,0.1243896484375,9.419847328244275,-150.4732824427481,-31.27480916030534,563.6697247706422,-38.440366972477065,17.431192660550458,,
1760477400.7830882,0,-0.90911865234375,0.12445068359375,0.12451171875,9.419847328244275,-183.6946564885496,-29.3206106870229,540.1834862385322,-38.1651376146789,17.522935779816514,,
1760477400.8043916,0,-0.908935546875,0.12445068359375,0.12432861328125,9.412213740458014,-144.61068702290078,-41.045801526717554,587.1559633027523,-38.62385321100918,17.79816513761468,,
1760477400.8150368,0,-0.9088134765625,0.1243896484375,0.1243896484375,9.427480916030534,-134.83969465648855,-19.549618320610687,728.0733944954129,-38.34862385321101,18.1651376146789,,
1760477400.8362176,0,-0.90863037109375,0.12445068359375,0.1243896484375,9.442748091603054,-160.24427480916032,-31.27480916030534,751.559633027523,-38.99082568807339,18.1651376146789,,
1760477400.8679152,0,-0.90850830078125,0.12445068359375,0.12451171875,9.435114503816791,-170.01526717557252,-44.954198473282446,422.7522935779817,-38.53211009174312,18.256880733944957,,
1760477400.8785088,0,-0.9083251953125,0.12445068359375,0.12445068359375,9.442748091603054,-117.25190839694656,-62.54198473282442,728.0733944954129,-38.62385321100918,16.88073394495413,,
1760477400.8893075,0,-0.908203125,0.12445068359375,0.12451171875,9.412213740458014,-144.61068702290078,-25.41221374045801,563.6697247706422,-39.63302752293578,17.339449541284406,,
1760477400.900011,0,-0.90802001953125,0.12445068359375,0.12445068359375,9.435114503816791,-187.6030534351145,-31.27480916030534,446.2385321100918,-38.53211009174312,17.522935779816514,,
1760477400.9317148,0,-0.90789794921875,0.1243896484375,0.12432861328125,9.412213740458014,-158.29007633587787,-48.86259541984733,610.6422018348624,-38.80733944954128,17.522935779816514,,
1760477400.96324,0,-0.90771484375,0.1243896484375,0.12432861328125,9.412213740458014,-148.51908396946564,-37.13740458015267,563.6697247706422,-38.53211009174312,18.1651376146789,,
1760477400.9739904,0,-0.9075927734375,0.12457275390625,0.12445068359375,9.427480916030534,-132.8854961832061,-37.13740458015267,634.1284403669725,-39.17431192660551,17.61467889908257,,
1760477400.9951994,0,-0.90740966796875,0.12432861328125,0.1243896484375,9.435114503816791,-144.61068702290078,-25.41221374045801,399.2660550458716,-39.72477064220183,17.889908256880734,,
1760477401.0060012,0,-0.90728759765625,0.12445068359375,0.12445068359375,9.404580152671755,-140.70229007633588,-19.549618320610687,822.0183486238533,-38.99082568807339,17.522935779816514,,
1760477401.0274875,0,-0.9071044921875,0.12451171875,0.1243896484375,9.435114503816791,-162.19847328244273,-31.27480916030534,587.1559633027523,-38.62385321100918,17.889908256880734,,
1760477401.0600398,0,-0.906982421875,0.12445068359375,0.1243896484375,9.442748091603054,-146.5648854961832,-50.81679389312977,587.1559633027523,-38.99082568807339,17.706422018348626,,
1760477401.081998,0,-0.90679931640625,0.12451171875,0.12451171875,9.442748091603054,-140.70229007633588,-37.13740458015267,681.1009174311927,-38.62385321100918,18.256880733944957,,
1760477401.0927768,0,-0.90667724609375,0.12451171875,0.12432861328125,9.419847328244275,-140.70229007633588,-31.27480916030534,399.2660550458716,-38.62385321100918,18.073394495412845,,
1760477401.114561,0,-0.906494140625,0.12445068359375,0.12451171875,9.412213740458014,-183.6946564885496,-41.045801526717554,540.1834862385322,-38.80733944954128,17.155963302752294,,
1760477401.146326,0,-0.9063720703125,0.12445068359375,0.1243896484375,9.419847328244275,-142.65648854961833,-37.13740458015267,939.4495412844036,-38.440366972477065,17.431192660550458,,
1760477401.1578848,0,-0.90618896484375,0.12445068359375,0.12445068359375,9.427480916030534,-146.5648854961832,-33.229007633587784,305.3211009174312,-38.07339449541284,18.256880733944957,,
1760477401.1789165,0,-0.90606689453125,0.12451171875,0.12445068359375,9.419847328244275,-125.06870229007632,-52.770992366412216,798.5321100917431,-38.71559633027523,17.79816513761468,,
1760477401.1893346,0,-0.9058837890625,0.1243896484375,0.1243896484375,9.419847328244275,-142.65648854961833,-9.778625954198471,634.1284403669725,-38.899082568807344,17.79816513761468,,
1760477401.2101831,0,-0.90576171875,0.12445068359375,0.124267578125,9.412213740458014,-146.5648854961832,-46.908396946564885,751.559633027523,-38.80733944954128,17.79816513761468,,
1760477401.22061,0,-0.90557861328125,0.12445068359375,0.1243896484375,9.442748091603054,-183.6946564885496,-37.13740458015267,587.1559633027523,-38.440366972477065,17.98165137614679,,
1760477401.24136,0,-0.90545654296875,0.12432861328125,0.1243896484375,9.427480916030534,-125.06870229007632,-7.824427480916031,328.8073394495413,-38.80733944954128,17.522935779816514,,
1760477401.2724464,0,-0.9052734375,0.12457275390625,0.12451171875,9.427480916030534,-150.4732824427481,-43.0,610.6422018348624,-37.88990825688073,18.34862385321101,,
1760477401.2828264,0,-0.9051513671875,0.12451171875,0.1243896484375,9.419847328244275,-140.70229007633588,-19.549618320610687,704.5871559633028,-38.25688073394495,17.889908256880734,,
1760477401.3034582,0,-0.90496826171875,0.12451171875,0.12445068359375,9.412213740458014,-154.38167938931298,-43.0,822.0183486238533,-38.99082568807339,18.807339449541285,,
1760477401.3344195,0,-0.90484619140625,0.12451171875,0.1243896484375,9.412213740458014,-160.24427480916032,-52.770992366412216,657.6146788990826,-38.71559633027523,18.073394495412845,,
1760477401.3448424,0,-0.9046630859375,0.12445068359375,0.1243896484375,9.419847328244275,-168.06106870229007,-35.18320610687023,681.1009174311927,-38.53211009174312,18.073394495412845,,
1760477401.386176,0,-0.904541015625,0.12445068359375,0.12445068359375,9.435114503816791,-170.01526717557252,-46.908396946564885,681.1009174311927,-38.25688073394495,17.79816513761468,,
1760477401.3966768,0,-0.90435791015625,0.12445068359375,0.12432861328125,9.435114503816791,-173.9236641221374,-64.49618320610686,493.2110091743119,-38.71559633027523,17.61467889908257,,
1760477401.4070542,0,-0.90423583984375,0.12445068359375,0.1243896484375,9.419847328244275,-152.42748091603053,-39.09160305343512,681.1009174311927,-38.440366972477065,17.339449541284406,,
1760477401.427846,0,-0.904052734375,0.12451171875,0.124267578125,9.435114503816791,-152.42748091603053,-31.27480916030534,563.6697247706422,-38.99082568807339,17.889908256880734,,
1760477401.438362,0,-0.9039306640625,0.12445068359375,0.12451171875,9.427480916030534,-160.24427480916032,-17.595419847328245,469.72477064220186,-39.44954128440367,18.073394495412845,,
1760477401.4590726,0,-0.90374755859375,0.1243896484375,0.12432861328125,9.419847328244275,-117.25190839694656,-41.045801526717554,634.1284403669725,-39.17431192660551,17.431192660550458,,
1760477401.4697242,0,-0.90362548828125,0.12451171875,0.12445068359375,9.435114503816791,-164.15267175572518,-29.3206106870229,563.6697247706422,-39.08256880733945,17.339449541284406,,
1760477401.5007205,0,-0.9034423828125,0.12457275390625,0.12451171875,9.427480916030534,-132.8854961832061,-13.687022900763358,775.045871559633,-38.1651376146789,17.706422018348626,,
1760477401.5318398,0,-0.9033203125,0.1243896484375,0.1243896484375,9.435114503816791,-144.61068702290078,-31.27480916030534,587.1559633027523,-38.62385321100918,17.79816513761468,,
1760477401.5422747,0,-0.90313720703125,0.1243896484375,0.12451171875,9.450381679389311,-156.33587786259542,-33.229007633587784,587.1559633027523,-38.440366972477065,17.98165137614679,,
1760477401.563391,0,-0.90301513671875,0.12451171875,0.12457275390625,9.435114503816791,-138.74809160305344,-11.732824427480915,328.8073394495413,-39.08256880733945,17.522935779816514,,
1760477401.5738442,0,-0.90283203125,0.12445068359375,0.1243896484375,9.419847328244275,-134.83969465648855,-33.229007633587784,775.045871559633,-38.62385321100918,17.61467889908257,,
1760477401.594601,0,-0.9027099609375,0.12451171875,0.12445068359375,9.435114503816791,-166.10687022900763,5.862595419847328,446.2385321100918,-38.440366972477065,17.706422018348626,,
1760477401.6256614,0,-0.90252685546875,0.12445068359375,0.12451171875,9.435114503816791,-164.15267175572518,-52.770992366412216,516.6972477064221,-38.1651376146789,17.79816513761468,,
1760477401.6360824,0,-0.90240478515625,0.12451171875,0.1243896484375,9.412213740458014,-154.38167938931298,-43.0,657.6146788990826,-38.34862385321101,17.889908256880734,,
1760477401.6568532,0,-0.9022216796875,0.12445068359375,0.12451171875,9.404580152671755,-166.10687022900763,-39.09160305343512,610.6422018348624,-38.899082568807344,17.98165137614679,,
1760477401.6879268,0,-0.902099609375,0.1243896484375,0.12445068359375,9.419847328244275,-148.51908396946564,-52.770992366412216,540.1834862385322,-38.71559633027523,18.256880733944957,,
1760477401.6983364,0,-0.90191650390625,0.12445068359375,0.12445068359375,9.435114503816791,-136.793893129771,-37.13740458015267,563.6697247706422,-38.440366972477065,17.522935779816514,,
1760477401.7191403,0,-0.90179443359375,0.12451171875,0.12432861328125,9.404580152671755,-162.19847328244273,-19.549618320610687,775.045871559633,-38.62385321100918,17.522935779816514,,
1760477401.7295153,0,-0.901611328125,0.12445068359375,0.12451171875,9.412213740458014,-154.38167938931298,-48.86259541984733,328.8073394495413,-38.440366972477065,17.98165137614679,,
1760477401.7502167,0,-0.9014892578125,0.12451171875,0.12445068359375,9.427480916030534,-123.1145038167939,-46.908396946564885,563.6697247706422,-38.899082568807344,18.53211009174312,,
1760477401.7811873,0,-0.90130615234375,0.12432861328125,0.12445068359375,9.442748091603054,-207.1450381679389,-50.81679389312977,446.2385321100918,-38.440366972477065,18.256880733944957,,
1760477401.7915738,0,-0.90118408203125,0.12445068359375,0.12451171875,9.419847328244275,-136.793893129771,-15.641221374045802,493.2110091743119,-38.53211009174312,17.61467889908257,,
1760477401.8122663,0,-0.9010009765625,0.12445068359375,0.12451171875,9.427480916030534,-146.5648854961832,-43.0,540.1834862385322,-38.53211009174312,18.34862385321101,,
1760477401.8226333,0,-0.90087890625,0.1243896484375,0.1243896484375,9.419847328244275,-158.29007633587787,-23.45801526717557,610.6422018348624,-38.53211009174312,17.79816513761468,,
1760477401.8432963,0,-0.90069580078125,0.12445068359375,0.12432861328125,9.419847328244275,-173.9236641221374,-17.595419847328245,775.045871559633,-38.899082568807344,17.889908256880734,,
1760477401.8743875,0,-0.90057373046875,0.1243896484375,0.12445068359375,9.412213740458014,-121.16030534351144,-33.229007633587784,375.7798165137615,-38.440366972477065,18.256880733944957,,
1760477401.9053714,0,-0.900390625,0.12445068359375,0.12445068359375,9.427480916030534,-156.33587786259542,-33.229007633587784,657.6146788990826,-38.80733944954128,18.256880733944957,,
1760477401.915727,0,-0.9002685546875,0.1243896484375,0.12432861328125,9.427480916030534,-127.02290076335878,-33.229007633587784,704.5871559633028,-38.440366972477065,17.98165137614679,,
1760477401.9363992,0,-0.90008544921875,0.12445068359375,0.12445068359375,9.435114503816791,-142.65648854961833,-23.45801526717557,563.6697247706422,-38.899082568807344,17.79816513761468,,
1760477401.946777,0,-0.89996337890625,0.1243896484375,0.12457275390625,9.419847328244275,-162.19847328244273,-37.13740458015267,493.2110091743119,-37.88990825688073,17.98165137614679,,
1760477401.9674726,0,-0.8997802734375,0.1243896484375,0.12451171875,9.427480916030534,-171.96946564885496,-60.58778625954199,704.5871559633028,-38.80733944954128,17.79816513761468,,
1760477401.9778953,0,-0.899658203125,0.1243896484375,0.12445068359375,9.412213740458014,-144.61068702290078,-44.954198473282446,704.5871559633028,-38.34862385321101,18.34862385321101,,
1760477401.9986234,0,-0.89947509765625,0.12451171875,0.12445068359375,9.427480916030534,-109.4351145038168,-31.27480916030534,493.2110091743119,-38.1651376146789,18.34862385321101,,
1760477402.0318625,0,-0.89935302734375,0.12445068359375,0.12445068359375,9.427480916030534,-134.83969465648855,-41.045801526717554,845.5045871559633,-39.08256880733945,17.79816513761468,,
1760477402.0422978,0,-0.899169921875,0.12451171875,0.12445068359375,9.419847328244275,-130.93129770992363,-23.45801526717557,728.0733944954129,-38.71559633027523,17.98165137614679,,
1760477402.0631845,0,-0.8990478515625,0.12457275390625,0.12451171875,9.435114503816791,-134.83969465648855,-46.908396946564885,328.8073394495413,-38.62385321100918,18.073394495412845,,
1760477402.0944593,0,-0.89886474609375,0.12451171875,0.12445068359375,9.427480916030534,-158.29007633587787,-37.13740458015267,634.1284403669725,-38.25688073394495,18.1651376146789,,
1760477402.1049151,0,-0.89874267578125,0.12445068359375,0.12432861328125,9.435114503816791,-140.70229007633588,-52.770992366412216,704.5871559633028,-38.25688073394495,18.1651376146789,,
1760477402.1257474,0,-0.8985595703125,0.12451171875,0.12432861328125,9.427480916030534,-144.61068702290078,-76.22137404580153,775.045871559633,-38.899082568807344,18.073394495412845,,
1760477402.157141,0,-0.8984375,0.1243896484375,0.12451171875,9.427480916030534,-134.83969465648855,-50.81679389312977,634.1284403669725,-38.1651376146789,17.706422018348626,,
1760477402.1683965,0,-0.89825439453125,0.12451171875,0.12457275390625,9.435114503816791,-117.25190839694656,-46.908396946564885,540.1834862385322,-38.440366972477065,17.61467889908257,,
1760477402.1791878,0,-0.89813232421875,0.12432861328125,0.1243896484375,9.412213740458014,-132.8854961832061,-60.58778625954199,328.8073394495413,-38.80733944954128,17.706422018348626,,
1760477402.1895835,0,-0.89794921875,0.12451171875,0.1243896484375,9.412213740458014,-128.9770992366412,-41.045801526717554,587.1559633027523,-38.62385321100918,17.24770642201835,,
1760477402.220564,0,-0.8978271484375,0.12451171875,0.12445068359375,9.412213740458014,-146.5648854961832,-23.45801526717557,516.6972477064221,-38.53211009174312,17.98165137614679,,
1760477402.2414846,0,-0.89764404296875,0.12432861328125,0.12445068359375,9.419847328244275,-138.74809160305344,-46.908396946564885,187.88990825688077,-38.71559633027523,17.889908256880734,,
1760477402.2518857,0,-0.89752197265625,0.12451171875,0.12451171875,9.412213740458014,-158.29007633587787,-35.18320610687023,751.559633027523,-38.440366972477065,18.073394495412845,,
1760477402.272824,0,-0.8973388671875,0.12445068359375,0.1243896484375,9.427480916030534,-148.51908396946564,-21.50381679389313,634.1284403669725,-39.54128440366972,17.79816513761468,,
1760477402.3042867,0,-0.897216796875,0.1243896484375,0.12445068359375,9.427480916030534,-160.24427480916032,-52.770992366412216,868.9908256880734,-38.899082568807344,17.522935779816514,,
1760477402.335869,0,-0.89703369140625,0.12451171875,0.1243896484375,9.435114503816791,-138.74809160305344,-54.725190839694655,751.559633027523,-38.53211009174312,18.256880733944957,,
1760477402.3464458,0,-0.89691162109375,0.12445068359375,0.12445068359375,9.427480916030534,-173.9236641221374,-37.13740458015267,775.045871559633,-39.08256880733945,17.522935779816514,,
1760477402.3678684,0,-0.896728515625,0.12451171875,0.1243896484375,9.427480916030534,-152.42748091603053,-37.13740458015267,587.1559633027523,-38.440366972477065,18.623853211009177,,
1760477402.378586,0,-0.8966064453125,0.12445068359375,0.12457275390625,9.435114503816791,-150.4732824427481,-62.54198473282442,563.6697247706422,-39.08256880733945,17.522935779816514,,
1760477402.4000576,0,-0.89642333984375,0.12451171875,0.12445068359375,9.412213740458014,-195.4198473282443,-46.908396946564885,704.5871559633028,-39.17431192660551,17.431192660550458,,
1760477402.4109485,0,-0.89630126953125,0.1243896484375,0.12445068359375,9.419847328244275,-117.25190839694656,-39.09160305343512,540.1834862385322,-38.99082568807339,17.61467889908257,,
1760477402.4322202,0,-0.8961181640625,0.12451171875,0.1246337890625,9.427480916030534,-158.29007633587787,-27.366412213740457,446.2385321100918,-38.34862385321101,18.53211009174312,,
1760477402.4430149,0,-0.89599609375,0.1243896484375,0.12445068359375,9.435114503816791,-166.10687022900763,-29.3206106870229,399.2660550458716,-38.62385321100918,18.256880733944957,,
1760477402.4749253,0,-0.89581298828125,0.1243896484375,0.1243896484375,9.404580152671755,-171.96946564885496,-41.045801526717554,915.9633027522935,-38.53211009174312,17.889908256880734,,
1760477402.5069315,0,-0.89569091796875,0.1243896484375,0.1243896484375,9.419847328244275,-99.66412213740458,-43.0,516.6972477064221,-38.71559633027523,17.889908256880734,,
1760477402.5176945,0,-0.8955078125,0.12451171875,0.1243896484375,9.435114503816791,-146.5648854961832,-56.6793893129771,516.6972477064221,-38.07339449541284,17.155963302752294,,
1760477402.5389338,0,-0.8953857421875,0.12445068359375,0.1243896484375,9.427480916030534,-144.61068702290078,-60.58778625954199,892.4770642201836,-38.440366972477065,17.24770642201835,,
1760477402.5496328,0,-0.89520263671875,0.1243896484375,0.12451171875,9.427480916030534,-150.4732824427481,-64.49618320610686,563.6697247706422,-38.25688073394495,17.79816513761468,,
1760477402.5710895,0,-0.89508056640625,0.1243896484375,0.12432861328125,9.435114503816791,-107.48091603053436,-44.954198473282446,516.6972477064221,-38.62385321100918,17.889908256880734,,
1760477402.5922463,0,-0.8948974609375,0.1243896484375,0.12432861328125,9.427480916030534,-117.25190839694656,-29.3206106870229,281.8348623853211,-38.1651376146789,18.256880733944957,,
1760477402.602814,0,-0.894775390625,0.12451171875,0.1243896484375,9.419847328244275,-121.16030534351144,-39.09160305343512,775.045871559633,-38.62385321100918,17.431192660550458,,
1760477402.6555555,0,-0.89459228515625,0.12451171875,0.1243896484375,9.412213740458014,-168.06106870229007,-68.40458015267176,704.5871559633028,-38.99082568807339,17.98165137614679,,
1760477402.6663723,0,-0.89447021484375,0.12451171875,0.12432861328125,9.412213740458014,-164.15267175572518,-48.86259541984733,587.1559633027523,-38.440366972477065,17.706422018348626,,
1760477402.6772084,0,-0.894287109375,0.1243896484375,0.12432861328125,9.412213740458014,-156.33587786259542,-0.0076335877862595,845.5045871559633,-38.25688073394495,17.706422018348626,,
1760477402.6881127,0,-0.8941650390625,0.1243896484375,0.12469482421875,9.396946564885496,-119.206106870229,-17.595419847328245,634.1284403669725,-39.26605504587156,18.256880733944957,,
1760477402.7200372,0,-0.89398193359375,0.12451171875,0.12445068359375,9.435114503816791,-168.06106870229007,-21.50381679389313,728.0733944954129,-38.62385321100918,17.889908256880734,,
1760477402.7308848,0,-0.89385986328125,0.12457275390625,0.12432861328125,9.435114503816791,-158.29007633587787,-19.549618320610687,493.2110091743119,-38.440366972477065,17.79816513761468,,
1760477402.7521925,0,-0.8936767578125,0.12457275390625,0.12451171875,9.450381679389311,-160.24427480916032,-29.3206106870229,446.2385321100918,-38.440366972477065,17.61467889908257,,
1760477402.7629485,0,-0.8935546875,0.12445068359375,0.12451171875,9.435114503816791,-144.61068702290078,-41.045801526717554,493.2110091743119,-38.1651376146789,18.34862385321101,,
1760477402.784256,0,-0.89337158203125,0.12451171875,0.1243896484375,9.419847328244275,-175.87786259541986,-56.6793893129771,446.2385321100918,-38.899082568807344,17.339449541284406,,
1760477402.8158484,0,-0.89324951171875,0.12445068359375,0.1243896484375,9.427480916030534,-142.65648854961833,-31.27480916030534,728.0733944954129,-38.71559633027523,17.522935779816514,,
1760477402.8264325,0,-0.89306640625,0.12445068359375,0.12445068359375,9.419847328244275,-136.793893129771,-37.13740458015267,587.1559633027523,-38.62385321100918,17.61467889908257,,
1760477402.8477156,0,-0.8929443359375,0.12445068359375,0.12445068359375,9.435114503816791,-146.5648854961832,-39.09160305343512,399.2660550458716,-38.80733944954128,17.98165137614679,,
1760477402.858454,0,-0.89276123046875,0.12445068359375,0.124267578125,9.427480916030534,-134.83969465648855,-37.13740458015267,915.9633027522935,-38.62385321100918,18.440366972477065,,
1760477402.911226,0,-0.89263916015625,0.12457275390625,0.12445068359375,9.435114503816791,-138.74809160305344,-33.229007633587784,775.045871559633,-38.62385321100918,17.706422018348626,,
1760477402.921969,0,-0.8924560546875,0.1246337890625,0.1243896484375,9.427480916030534,-125.06870229007632,-68.40458015267176,681.1009174311927,-38.1651376146789,17.706422018348626,,
1760477402.9326656,0,-0.892333984375,0.12457275390625,0.12432861328125,9.435114503816791,-152.42748091603053,-46.908396946564885,493.2110091743119,-38.80733944954128,17.24770642201835,,
1760477402.9433708,0,-0.89215087890625,0.1243896484375,0.12432861328125,9.427480916030534,-146.5648854961832,-43.0,422.7522935779817,-38.34862385321101,17.98165137614679,,
1760477402.9751456,0,-0.89202880859375,0.1243896484375,0.1243896484375,9.427480916030534,-109.4351145038168,-62.54198473282442,610.6422018348624,-38.99082568807339,18.073394495412845,,
1760477402.9860122,0,-0.891845703125,0.12451171875,0.1243896484375,9.412213740458014,-138.74809160305344,-5.870229007633588,328.8073394495413,-38.53211009174312,18.440366972477065,,
1760477403.0073369,0,-0.8917236328125,0.1243896484375,0.12445068359375,9.419847328244275,-179.78625954198472,-33.229007633587784,657.6146788990826,-38.62385321100918,17.522935779816514,,
1760477403.0179963,0,-0.89154052734375,0.12420654296875,0.12445068359375,9.412213740458014,-130.93129770992363,-1.9618320610687023,422.7522935779817,-38.99082568807339,17.24770642201835,,
1760477403.0390594,0,-0.89141845703125,0.12420654296875,0.12445068359375,9.404580152671755,-148.51908396946564,-15.641221374045802,915.9633027522935,-38.899082568807344,17.339449541284406,,
1760477403.0709257,0,-0.8912353515625,0.1243896484375,0.12457275390625,9.435114503816791,-125.06870229007632,3.908396946564885,822.0183486238533,-38.71559633027523,17.706422018348626,,
1760477403.081705,0,-0.89111328125,0.1246337890625,0.12445068359375,9.435114503816791,-168.06106870229007,-33.229007633587784,822.0183486238533,-38.25688073394495,17.98165137614679,,
1760477403.1024916,0,-0.89093017578125,0.1246337890625,0.12445068359375,9.419847328244275,-171.96946564885496,-29.3206106870229,1009.908256880734,-39.08256880733945,18.1651376146789,,
1760477403.1334517,0,-0.89080810546875,0.1246337890625,0.12432861328125,9.442748091603054,-127.02290076335878,-33.229007633587784,657.6146788990826,-38.440366972477065,18.073394495412845,,
1760477403.1438603,0,-0.890625,0.12469482421875,0.1241455078125,9.435114503816791,-113.34351145038168,-74.26717557251908,540.1834862385322,-38.25688073394495,17.61467889908257,,
1760477403.1645486,0,-0.8905029296875,0.12451171875,0.1243896484375,9.419847328244275,-113.34351145038168,-35.18320610687023,657.6146788990826,-38.34862385321101,17.431192660550458,,
1760477403.1749244,0,-0.89031982421875,0.1243896484375,0.12445068359375,9.419847328244275,-140.70229007633588,-35.18320610687023,634.1284403669725,-38.71559633027523,17.61467889908257,,
1760477403.1956997,0,-0.89019775390625,0.12445068359375,0.12451171875,9.427480916030534,-125.06870229007632,-41.045801526717554,822.0183486238533,-39.17431192660551,18.073394495412845,,
1760477403.2061613,0,-0.8900146484375,0.12445068359375,0.12457275390625,9.419847328244275,-189.55725190839692,-46.908396946564885,563.6697247706422,-38.80733944954128,18.073394495412845,,
1760477403.237136,0,-0.889892578125,0.12445068359375,0.12451171875,9.427480916030534,-130.93129770992363,-23.45801526717557,728.0733944954129,-38.1651376146789,17.706422018348626,,
1760477403.2579217,0,-0.88970947265625,0.12445068359375,0.12451171875,9.427480916030534,-144.61068702290078,-31.27480916030534,775.045871559633,-38.1651376146789,17.431192660550458,,
1760477403.2892597,0,-0.88958740234375,0.12457275390625,0.124267578125,9.435114503816791,-170.01526717557252,-17.595419847328245,657.6146788990826,-38.440366972477065,17.431192660550458,,
1760477403.3001137,0,-0.889404296875,0.12451171875,0.1243896484375,9.412213740458014,-158.29007633587787,-29.3206106870229,469.72477064220186,-38.80733944954128,17.522935779816514,,
1760477403.3215313,0,-0.8892822265625,0.12451171875,0.12445068359375,9.435114503816791,-166.10687022900763,-43.0,657.6146788990826,-37.98165137614679,17.79816513761468,,
1760477403.3320649,0,-0.88909912109375,0.1243896484375,0.12445068359375,9.419847328244275,-138.74809160305344,-76.22137404580153,540.1834862385322,-38.440366972477065,17.98165137614679,,
1760477403.353092,0,-0.88897705078125,0.12445068359375,0.12445068359375,9.435114503816791,-166.10687022900763,0.0,634.1284403669725,-39.26605504587156,17.889908256880734,,
1760477403.3637457,0,-0.8887939453125,0.1243896484375,0.12457275390625,9.435114503816791,-183.6946564885496,-17.595419847328245,704.5871559633028,-38.53211009174312,17.522935779816514,,
1760477403.3849995,0,-0.888671875,0.12451171875,0.12457275390625,9.435114503816791,-117.25190839694656,-48.86259541984733,446.2385321100918,-38.440366972477065,16.972477064220186,,
1760477403.41672,0,-0.88848876953125,0.1246337890625,0.12451171875,9.419847328244275,-142.65648854961833,-43.0,657.6146788990826,-38.62385321100918,18.256880733944957,,
1760477403.4273815,0,-0.88836669921875,0.12445068359375,0.12445068359375,9.412213740458014,-136.793893129771,-9.778625954198471,751.559633027523,-39.08256880733945,17.339449541284406,,
1760477403.448589,0,-0.88818359375,0.12451171875,0.1243896484375,9.435114503816791,-146.5648854961832,-70.3587786259542,305.3211009174312,-38.53211009174312,18.073394495412845,,
1760477403.4803867,0,-0.8880615234375,0.12457275390625,0.12451171875,9.427480916030534,-166.10687022900763,-48.86259541984733,587.1559633027523,-38.80733944954128,17.61467889908257,,
1760477403.491299,0,-0.88787841796875,0.12445068359375,0.1243896484375,9.412213740458014,-127.02290076335878,-37.13740458015267,822.0183486238533,-38.62385321100918,17.889908256880734,,
1760477403.512595,0,-0.88775634765625,0.12445068359375,0.12445068359375,9.427480916030534,-128.9770992366412,-19.549618320610687,775.045871559633,-38.53211009174312,17.522935779816514,,
1760477403.544481,0,-0.8875732421875,0.12451171875,0.12432861328125,9.435114503816791,-138.74809160305344,-15.641221374045802,634.1284403669725,-38.62385321100918,18.1651376146789,,
1760477403.5552697,0,-0.887451171875,0.12451171875,0.12451171875,9.427480916030534,-156.33587786259542,-35.18320610687023,540.1834862385322,-38.80733944954128,17.79816513761468,,
1760477403.5767229,0,-0.88726806640625,0.12445068359375,0.12432861328125,9.419847328244275,-154.38167938931298,-13.687022900763358,868.9908256880734,-38.80733944954128,18.1651376146789,,
1760477403.5873964,0,-0.88714599609375,0.12451171875,0.1243896484375,9.404580152671755,-170.01526717557252,-39.09160305343512,610.6422018348624,-38.53211009174312,17.98165137614679,,
1760477403.6087942,0,-0.886962890625,0.12451171875,0.12457275390625,9.435114503816791,-130.93129770992363,-37.13740458015267,234.86238532110093,-38.899082568807344,17.98165137614679,,
1760477403.6405618,0,-0.8868408203125,0.12445068359375,0.12445068359375,9.427480916030534,-138.74809160305344,-37.13740458015267,798.5321100917431,-38.80733944954128,17.522935779816514,,
1760477403.6513486,0,-0.88665771484375,0.12445068359375,0.12432861328125,9.435114503816791,-177.8320610687023,-82.08396946564885,634.1284403669725,-38.34862385321101,17.24770642201835,,
1760477403.6727204,0,-0.88653564453125,0.12451171875,0.12445068359375,9.419847328244275,-144.61068702290078,-70.3587786259542,868.9908256880734,-39.26605504587156,18.1651376146789,,
1760477403.6942031,0,-0.8863525390625,0.1246337890625,0.1243896484375,9.450381679389311,-134.83969465648855,-48.86259541984733,399.2660550458716,-39.26605504587156,18.073394495412845,,
1760477403.7049367,0,-0.88623046875,0.12445068359375,0.12445068359375,9.404580152671755,-170.01526717557252,-39.09160305343512,516.6972477064221,-39.08256880733945,17.61467889908257,,
1760477403.726231,0,-0.88604736328125,0.1243896484375,0.124267578125,9.435114503816791,-166.10687022900763,-52.770992366412216,516.6972477064221,-38.71559633027523,18.440366972477065,,
1760477403.7580907,0,-0.88592529296875,0.12457275390625,0.1246337890625,9.427480916030534,-168.06106870229007,-11.732824427480915,563.6697247706422,-38.53211009174312,17.61467889908257,,
1760477403.7688956,0,-0.8857421875,0.1246337890625,0.12451171875,9.419847328244275,-148.51908396946564,-37.13740458015267,352.2935779816514,-38.53211009174312,17.98165137614679,,
1760477403.7901442,0,-0.8856201171875,0.12432861328125,0.12457275390625,9.427480916030534,-158.29007633587787,-23.45801526717557,493.2110091743119,-38.25688073394495,17.889908256880734,,
1760477403.8009045,0,-0.88543701171875,0.1243896484375,0.12445068359375,9.435114503816791,-181.7404580152672,-19.549618320610687,657.6146788990826,-39.08256880733945,17.79816513761468,,
1760477403.82221,0,-0.88531494140625,0.1243896484375,0.12445068359375,9.419847328244275,-134.83969465648855,-60.58778625954199,587.1559633027523,-39.26605504587156,17.706422018348626,,
1760477403.8329349,0,-0.8851318359375,0.12445068359375,0.1243896484375,9.419847328244275,-130.93129770992363,-41.045801526717554,610.6422018348624,-38.899082568807344,17.706422018348626,,
1760477403.8543031,0,-0.885009765625,0.12445068359375,0.12451171875,9.435114503816791,-134.83969465648855,-50.81679389312977,328.8073394495413,-38.99082568807339,17.522935779816514,,
1760477403.886199,0,-0.88482666015625,0.12457275390625,0.12445068359375,9.412213740458014,-119.206106870229,-33.229007633587784,704.5871559633028,-38.34862385321101,17.522935779816514,,
1760477403.918182,0,-0.88470458984375,0.12445068359375,0.1243896484375,9.442748091603054,-152.42748091603053,-19.549618320610687,634.1284403669725,-38.440366972477065,18.256880733944957,,
1760477403.928905,0,-0.884521484375,0.12451171875,0.1243896484375,9.442748091603054,-127.02290076335878,-37.13740458015267,493.2110091743119,-38.62385321100918,18.53211009174312,,
1760477403.950244,0,-0.8843994140625,0.12445068359375,0.12451171875,9.419847328244275,-132.8854961832061,-27.366412213740457,798.5321100917431,-38.71559633027523,16.788990825688074,,
1760477403.960999,0,-0.88421630859375,0.12445068359375,0.12451171875,9.427480916030534,-140.70229007633588,-39.09160305343512,516.6972477064221,-38.07339449541284,17.431192660550458,,
1760477403.9823484,0,-0.88409423828125,0.12445068359375,0.12445068359375,9.419847328244275,-123.1145038167939,-66.45038167938931,822.0183486238533,-38.899082568807344,17.706422018348626,,
1760477404.0038345,0,-0.8839111328125,0.12445068359375,0.1243896484375,9.427480916030534,-162.19847328244273,-60.58778625954199,446.2385321100918,-38.34862385321101,17.61467889908257,,
1760477404.0145776,0,-0.8837890625,0.1243896484375,0.12432861328125,9.419847328244275,-183.6946564885496,-29.3206106870229,352.2935779816514,-39.17431192660551,17.706422018348626,,
1760477404.0359354,0,-0.88360595703125,0.12445068359375,0.12445068359375,9.419847328244275,-158.29007633587787,-1.9618320610687023,281.8348623853211,-39.08256880733945,18.256880733944957,,
1760477404.0467775,0,-0.88348388671875,0.1243896484375,0.12445068359375,9.427480916030534,-173.9236641221374,-15.641221374045802,657.6146788990826,-38.440366972477065,17.98165137614679,,
1760477404.0785863,0,-0.88330078125,0.1243896484375,0.1243896484375,9.427480916030534,-146.5648854961832,-17.595419847328245,469.72477064220186,-38.62385321100918,17.706422018348626,,
1760477404.110581,0,-0.8831787109375,0.12469482421875,0.1246337890625,9.412213740458014,-140.70229007633588,-46.908396946564885,516.6972477064221,-38.07339449541284,17.431192660550458,,
1760477404.1218026,0,-0.88299560546875,0.1243896484375,0.12457275390625,9.404580152671755,-146.5648854961832,-46.908396946564885,422.7522935779817,-38.899082568807344,17.889908256880734,,
1760477404.1327176,0,-0.88287353515625,0.12445068359375,0.1243896484375,9.412213740458014,-154.38167938931298,-21.50381679389313,798.5321100917431,-39.63302752293578,18.807339449541285,,
1760477404.143483,0,-0.8826904296875,0.12432861328125,0.12451171875,9.427480916030534,-144.61068702290078,-33.229007633587784,516.6972477064221,-38.440366972477065,18.53211009174312,,
1760477404.165366,0,-0.882568359375,0.12457275390625,0.12432861328125,9.427480916030534,-164.15267175572518,-52.770992366412216,469.72477064220186,-38.99082568807339,17.522935779816514,,
1760477404.1973226,0,-0.88238525390625,0.12457275390625,0.12420654296875,9.427480916030534,-168.06106870229007,-29.3206106870229,469.72477064220186,-38.80733944954128,17.431192660550458,,
1760477404.2078104,0,-0.88226318359375,0.12451171875,0.1243896484375,9.404580152671755,-134.83969465648855,-54.725190839694655,610.6422018348624,-38.34862385321101,17.339449541284406,,
1760477404.2285414,0,-0.882080078125,0.12451171875,0.12445068359375,9.404580152671755,-130.93129770992363,-43.0,751.559633027523,-38.25688073394495,18.073394495412845,,
1760477404.2598882,0,-0.8819580078125,0.1243896484375,0.12445068359375,9.427480916030534,-160.24427480916032,-37.13740458015267,540.1834862385322,-38.71559633027523,17.98165137614679,,
1760477404.2705584,0,-0.88177490234375,0.12445068359375,0.1243896484375,9.427480916030534,-152.42748091603053,-27.366412213740457,751.559633027523,-38.899082568807344,18.807339449541285,,
1760477404.2916024,0,-0.88165283203125,0.12457275390625,0.12451171875,9.435114503816791,-138.74809160305344,-13.687022900763358,892.4770642201836,-38.80733944954128,17.98165137614679,,
1760477404.3234928,0,-0.8814697265625,0.12445068359375,0.12451171875,9.435114503816791,-154.38167938931298,-27.366412213740457,540.1834862385322,-38.62385321100918,17.24770642201835,,
1760477404.3342893,0,-0.88134765625,0.12451171875,0.12432861328125,9.412213740458014,-130.93129770992363,1.954198473282443,446.2385321100918,-38.53211009174312,17.706422018348626,,
1760477404.355546,0,-0.88116455078125,0.12457275390625,0.12420654296875,9.419847328244275,-156.33587786259542,-25.41221374045801,446.2385321100918,-38.62385321100918,17.339449541284406,,
1760477404.3873746,0,-0.88104248046875,0.1243896484375,0.1243896484375,9.427480916030534,-144.61068702290078,-41.045801526717554,258.34862385321105,-38.80733944954128,17.79816513761468,,
1760477404.3981092,0,-0.880859375,0.1243896484375,0.12451171875,9.419847328244275,-150.4732824427481,-9.778625954198471,540.1834862385322,-38.99082568807339,18.440366972477065,,
1760477404.419539,0,-0.8807373046875,0.1243896484375,0.12451171875,9.419847328244275,-121.16030534351144,-50.81679389312977,587.1559633027523,-38.53211009174312,17.79816513761468,,
1760477404.4303436,0,-0.88055419921875,0.12451171875,0.12451171875,9.435114503816791,-187.6030534351145,-43.0,1009.908256880734,-38.34862385321101,17.61467889908257,,
1760477404.45171,0,-0.88043212890625,0.1246337890625,0.1246337890625,9.427480916030534,-191.5114503816794,-44.954198473282446,469.72477064220186,-38.34862385321101,17.889908256880734,,
1760477404.4624517,0,-0.8802490234375,0.1243896484375,0.12451171875,9.412213740458014,-152.42748091603053,-33.229007633587784,305.3211009174312,-38.53211009174312,18.440366972477065,,
1760477404.4839103,0,-0.880126953125,0.1243896484375,0.1243896484375,9.419847328244275,-146.5648854961832,-46.908396946564885,540.1834862385322,-38.34862385321101,17.522935779816514,,
1760477404.515832,0,-0.87994384765625,0.12457275390625,0.12432861328125,9.435114503816791,-144.61068702290078,-43.0,328.8073394495413,-38.25688073394495,18.1651376146789,,
1760477404.5475566,0,-0.87982177734375,0.12451171875,0.1243896484375,9.435114503816791,-111.38931297709924,-41.045801526717554,822.0183486238533,-38.62385321100918,17.79816513761468,,
1760477404.5584693,0,-0.879638671875,0.12451171875,0.12445068359375,9.419847328244275,-121.16030534351144,-7.824427480916031,681.1009174311927,-38.899082568807344,17.61467889908257,,
1760477404.5692294,0,-0.8795166015625,0.1243896484375,0.12445068359375,9.427480916030534,-103.57251908396948,-52.770992366412216,728.0733944954129,-38.80733944954128,17.706422018348626,,
1760477404.5798578,0,-0.87933349609375,0.12445068359375,0.12432861328125,9.427480916030534,-140.70229007633588,-72.31297709923665,375.7798165137615,-38.440366972477065,17.522935779816514,,
1760477404.6011777,0,-0.87921142578125,0.12451171875,0.12451171875,9.435114503816791,-164.15267175572518,-62.54198473282442,704.5871559633028,-38.99082568807339,17.889908256880734,,
1760477404.632939,0,-0.8790283203125,0.12445068359375,0.12445068359375,9.419847328244275,-152.42748091603053,-13.687022900763358,516.6972477064221,-39.54128440366972,17.706422018348626,,
1760477404.6436334,0,-0.87890625,0.12451171875,0.1243896484375,9.412213740458014,-197.3740458015267,-68.40458015267176,352.2935779816514,-38.899082568807344,17.98165137614679,,
1760477404.6649616,0,-0.87872314453125,0.12445068359375,0.12445068359375,9.435114503816791,-113.34351145038168,-21.50381679389313,281.8348623853211,-38.71559633027523,17.706422018348626,,
1760477404.6756835,0,-0.87860107421875,0.12445068359375,0.12432861328125,9.419847328244275,-144.61068702290078,-25.41221374045801,469.72477064220186,-38.1651376146789,17.61467889908257,,
1760477404.6975265,0,-0.87841796875,0.12445068359375,0.12445068359375,9.427480916030534,-146.5648854961832,-54.725190839694655,563.6697247706422,-38.34862385321101,17.79816513761468,,
1760477404.7295277,0,-0.8782958984375,0.12445068359375,0.12445068359375,9.427480916030534,-134.83969465648855,-58.63358778625954,258.34862385321105,-38.62385321100918,17.155963302752294,,
1760477404.740202,0,-0.87811279296875,0.12445068359375,0.12445068359375,9.442748091603054,-123.1145038167939,-25.41221374045801,469.72477064220186,-38.71559633027523,18.1651376146789,,
1760477404.761468,0,-0.87799072265625,0.12445068359375,0.1243896484375,9.419847328244275,-170.01526717557252,-31.27480916030534,587.1559633027523,-38.899082568807344,18.53211009174312,,
1760477404.793186,0,-0.8778076171875,0.12457275390625,0.12451171875,9.412213740458014,-144.61068702290078,-44.954198473282446,399.2660550458716,-38.25688073394495,17.431192660550458,,
1760477404.8038678,0,-0.877685546875,0.12451171875,0.12445068359375,9.435114503816791,-138.74809160305344,-44.954198473282446,469.72477064220186,-38.80733944954128,17.155963302752294,,
1760477404.825109,0,-0.87750244140625,0.12432861328125,0.12451171875,9.435114503816791,-191.5114503816794,-9.778625954198471,657.6146788990826,-39.26605504587156,18.256880733944957,,
1760477404.8358357,0,-0.87738037109375,0.12432861328125,0.1243896484375,9.419847328244275,-150.4732824427481,-44.954198473282446,516.6972477064221,-38.440366972477065,18.1651376146789,,
1760477404.8570998,0,-0.877197265625,0.12445068359375,0.12445068359375,9.419847328244275,-164.15267175572518,-70.3587786259542,728.0733944954129,-38.07339449541284,17.522935779816514,,
1760477404.88895,0,-0.8770751953125,0.12451171875,0.1243896484375,9.427480916030534,-121.16030534351144,-60.58778625954199,915.9633027522935,-38.25688073394495,17.889908256880734,,
1760477404.8996148,0,-0.87689208984375,0.12445068359375,0.12445068359375,9.412213740458014,-140.70229007633588,-1.9618320610687023,1127.3394495412845,-38.53211009174312,17.522935779816514,,
1760477404.9208982,0,-0.87677001953125,0.12457275390625,0.1243896484375,9.412213740458014,-170.01526717557252,-43.0,681.1009174311927,-39.17431192660551,17.61467889908257,,
1760477404.9525654,0,-0.8765869140625,0.12432861328125,0.12451171875,9.427480916030534,-158.29007633587787,-37.13740458015267,563.6697247706422,-38.62385321100918,17.339449541284406,,
1760477404.9632678,0,-0.87646484375,0.12445068359375,0.12451171875,9.419847328244275,-130.93129770992363,0.0,704.5871559633028,-38.62385321100918,17.889908256880734,,
1760477405.005847,0,-0.87628173828125,0.12451171875,0.12451171875,9.427480916030534,-134.83969465648855,-41.045801526717554,446.2385321100918,-37.98165137614679,18.073394495412845,,
1760477405.0165398,0,-0.87615966796875,0.12445068359375,0.1243896484375,9.427480916030534,-185.6488549618321,-31.27480916030534,516.6972477064221,-38.99082568807339,17.79816513761468,,
1760477405.0272186,0,-0.8759765625,0.12445068359375,0.1243896484375,9.427480916030534,-146.5648854961832,-64.49618320610686,258.34862385321105,-38.25688073394495,17.889908256880734,,
1760477405.0379603,0,-0.8758544921875,0.12445068359375,0.12445068359375,9.412213740458014,-142.65648854961833,-25.41221374045801,657.6146788990826,-38.71559633027523,18.073394495412845,,
1760477405.0484643,0,-0.87567138671875,0.12451171875,0.1243896484375,9.442748091603054,-142.65648854961833,-25.41221374045801,516.6972477064221,-38.34862385321101,17.98165137614679,,
1760477405.0693488,0,-0.87554931640625,0.12445068359375,0.12457275390625,9.442748091603054,-125.06870229007632,-39.09160305343512,587.1559633027523,-38.71559633027523,17.61467889908257,,
1760477405.0801697,0,-0.8753662109375,0.12445068359375,0.12457275390625,9.419847328244275,-171.96946564885496,-17.595419847328245,469.72477064220186,-38.71559633027523,17.98165137614679,,
1760477405.1122117,0,-0.875244140625,0.12451171875,0.12445068359375,9.435114503816791,-156.33587786259542,-19.549618320610687,868.9908256880734,-38.34862385321101,18.1651376146789,,
1760477405.133618,0,-0.87506103515625,0.12451171875,0.12445068359375,9.412213740458014,-154.38167938931298,-33.229007633587784,493.2110091743119,-38.440366972477065,17.155963302752294,,
1760477405.1653836,0,-0.87493896484375,0.12445068359375,0.12451171875,9.419847328244275,-148.51908396946564,-23.45801526717557,845.5045871559633,-38.07339449541284,17.61467889908257,,
1760477405.176169,0,-0.874755859375,0.1243896484375,0.1243896484375,9.412213740458014,-158.29007633587787,-58.63358778625954,587.1559633027523,-38.899082568807344,17.889908256880734,,
1760477405.1974366,0,-0.8746337890625,0.12445068359375,0.12451171875,9.427480916030534,-134.83969465648855,-29.3206106870229,751.559633027523,-38.53211009174312,18.34862385321101,,
1760477405.208219,0,-0.87445068359375,0.1243896484375,0.12445068359375,9.435114503816791,-138.74809160305344,-27.366412213740457,845.5045871559633,-38.899082568807344,17.79816513761468,,
1760477405.2295408,0,-0.87432861328125,0.12451171875,0.12445068359375,9.419847328244275,-132.8854961832061,-19.549618320610687,634.1284403669725,-38.899082568807344,17.339449541284406,,
1760477405.2403333,0,-0.8741455078125,0.12445068359375,0.1243896484375,9.427480916030534,-130.93129770992363,-60.58778625954199,563.6697247706422,-38.25688073394495,17.24770642201835,,
1760477405.2720273,0,-0.8740234375,0.12451171875,0.12445068359375,9.435114503816791,-168.06106870229007,3.908396946564885,399.2660550458716,-38.80733944954128,17.431192660550458,,
1760477405.2932703,0,-0.87384033203125,0.12445068359375,0.124267578125,9.419847328244275,-136.793893129771,-31.27480916030534,469.72477064220186,-38.71559633027523,18.440366972477065,,
1760477405.3038838,0,-0.87371826171875,0.1243896484375,0.12445068359375,9.450381679389311,-164.15267175572518,-25.41221374045801,845.5045871559633,-38.53211009174312,17.706422018348626,,
1760477405.325018,0,-0.87353515625,0.1243896484375,0.12445068359375,9.419847328244275,-152.42748091603053,-84.0381679389313,610.6422018348624,-38.62385321100918,17.98165137614679,,
1760477405.3564837,0,-0.8734130859375,0.12457275390625,0.12451171875,9.419847328244275,-119.206106870229,-23.45801526717557,587.1559633027523,-38.71559633027523,18.073394495412845,,
1760477405.3669071,0,-0.87322998046875,0.12451171875,0.1243896484375,9.419847328244275,-150.4732824427481,-39.09160305343512,328.8073394495413,-38.71559633027523,17.522935779816514,,
1760477405.3877203,0,-0.87310791015625,0.12445068359375,0.12445068359375,9.435114503816791,-166.10687022900763,-58.63358778625954,563.6697247706422,-38.71559633027523,18.073394495412845,,
1760477405.3981593,0,-0.8729248046875,0.1243896484375,0.1243896484375,9.419847328244275,-134.83969465648855,-37.13740458015267,915.9633027522935,-38.53211009174312,18.073394495412845,,
1760477405.429323,0,-0.872802734375,0.12445068359375,0.12445068359375,9.419847328244275,-160.24427480916032,-58.63358778625954,399.2660550458716,-38.80733944954128,18.34862385321101,,
1760477405.4609427,0,-0.87261962890625,0.12451171875,0.12451171875,9.427480916030534,-142.65648854961833,-17.595419847328245,587.1559633027523,-38.99082568807339,17.79816513761468,,
1760477405.4717538,0,-0.87249755859375,0.12451171875,0.12451171875,9.419847328244275,-136.793893129771,-23.45801526717557,587.1559633027523,-38.99082568807339,17.79816513761468,,
1760477405.4930625,0,-0.872314453125,0.12451171875,0.12445068359375,9.427480916030534,-156.33587786259542,-46.908396946564885,469.72477064220186,-38.440366972477065,16.972477064220186,,
1760477405.5143063,0,-0.8721923828125,0.12445068359375,0.12451171875,9.412213740458014,-158.29007633587787,-43.0,540.1834862385322,-38.62385321100918,17.61467889908257,,
1760477405.5250902,0,-0.87200927734375,0.12451171875,0.1243896484375,9.412213740458014,-117.25190839694656,-3.916030534351145,728.0733944954129,-38.53211009174312,18.073394495412845,,
1760477405.5464222,0,-0.87188720703125,0.12445068359375,0.12451171875,9.419847328244275,-109.4351145038168,-33.229007633587784,728.0733944954129,-38.71559633027523,18.440366972477065,,
1760477405.578169,0,-0.8717041015625,0.12445068359375,0.12432861328125,9.427480916030534,-162.19847328244273,-21.50381679389313,845.5045871559633,-38.62385321100918,17.706422018348626,,
1760477405.5889356,0,-0.87158203125,0.12457275390625,0.124267578125,9.427480916030534,-158.29007633587787,-3.916030534351145,117.43119266055048,-39.26605504587156,17.61467889908257,,
1760477405.599516,0,-0.87139892578125,0.12457275390625,0.12451171875,9.427480916030534,-115.29770992366412,-52.770992366412216,281.8348623853211,-37.98165137614679,16.972477064220186,,
1760477405.6207528,0,-0.87127685546875,0.12445068359375,0.12445068359375,9.419847328244275,-134.83969465648855,-64.49618320610686,728.0733944954129,-38.899082568807344,18.256880733944957,,
1760477405.6525989,0,-0.87109375,0.1243896484375,0.12451171875,9.427480916030534,-136.793893129771,-19.549618320610687,657.6146788990826,-38.80733944954128,17.24770642201835,,
1760477405.6633823,0,-0.8709716796875,0.12451171875,0.12445068359375,9.442748091603054,-121.16030534351144,-31.27480916030534,540.1834862385322,-38.25688073394495,18.53211009174312,,
1760477405.6741917,0,-0.87078857421875,0.12451171875,0.12432861328125,9.435114503816791,-162.19847328244273,-60.58778625954199,563.6697247706422,-38.71559633027523,17.79816513761468,,
1760477405.684993,0,-0.87066650390625,0.12445068359375,0.1243896484375,9.412213740458014,-175.87786259541986,-27.366412213740457,822.0183486238533,-38.1651376146789,17.889908256880734,,
1760477405.7169178,0,-0.8704833984375,0.12445068359375,0.1243896484375,9.450381679389311,-154.38167938931298,-43.0,704.5871559633028,-38.1651376146789,17.889908256880734,,
1760477405.7488568,0,-0.870361328125,0.12451171875,0.12445068359375,9.419847328244275,-140.70229007633588,-21.50381679389313,751.559633027523,-38.25688073394495,17.889908256880734,,
1760477405.7595742,0,-0.87017822265625,0.12457275390625,0.12451171875,9.427480916030534,-150.4732824427481,-62.54198473282442,399.2660550458716,-38.1651376146789,18.1651376146789,,
1760477405.7809055,0,-0.87005615234375,0.12445068359375,0.1243896484375,9.427480916030534,-152.42748091603053,-43.0,704.5871559633028,-38.62385321100918,17.431192660550458,,
1760477405.7916114,0,-0.869873046875,0.12445068359375,0.12445068359375,9.427480916030534,-138.74809160305344,-56.6793893129771,798.5321100917431,-38.34862385321101,17.61467889908257,,
1760477405.813038,0,-0.8697509765625,0.12457275390625,0.12451171875,9.435114503816791,-144.61068702290078,-35.18320610687023,704.5871559633028,-38.34862385321101,17.706422018348626,,
1760477405.8449607,0,-0.86956787109375,0.12445068359375,0.12432861328125,9.412213740458014,-125.06870229007632,-52.770992366412216,469.72477064220186,-38.440366972477065,18.073394495412845,,
1760477405.8557084,0,-0.86944580078125,0.12457275390625,0.1243896484375,9.427480916030534,-160.24427480916032,-50.81679389312977,775.045871559633,-38.71559633027523,17.522935779816514,,
1760477405.87711,0,-0.8692626953125,0.1243896484375,0.12451171875,9.427480916030534,-132.8854961832061,-17.595419847328245,657.6146788990826,-38.1651376146789,17.889908256880734,,
1760477405.8878665,0,-0.869140625,0.12451171875,0.1243896484375,9.404580152671755,-132.8854961832061,-35.18320610687023,540.1834862385322,-37.98165137614679,17.61467889908257,,
1760477405.909176,0,-0.86895751953125,0.12445068359375,0.12445068359375,9.427480916030534,-142.65648854961833,-39.09160305343512,728.0733944954129,-38.34862385321101,17.706422018348626,,
1760477405.9411104,0,-0.86883544921875,0.1243896484375,0.12445068359375,9.427480916030534,-117.25190839694656,-68.40458015267176,681.1009174311927,-38.25688073394495,17.79816513761468,,
1760477405.951893,0,-0.86865234375,0.12451171875,0.12445068359375,9.435114503816791,-119.206106870229,-52.770992366412216,234.86238532110093,-38.25688073394495,18.256880733944957,,
1760477405.973264,0,-0.8685302734375,0.12451171875,0.12451171875,9.412213740458014,-177.8320610687023,-50.81679389312977,610.6422018348624,-38.1651376146789,18.073394495412845,,
1760477405.984067,0,-0.86834716796875,0.12445068359375,0.1243896484375,9.427480916030534,-144.61068702290078,-31.27480916030534,681.1009174311927,-38.25688073394495,17.889908256880734,,
1760477406.015992,0,-0.86822509765625,0.12451171875,0.12445068359375,9.442748091603054,-148.51908396946564,-43.0,516.6972477064221,-38.71559633027523,17.431192660550458,,
1760477406.037326,0,-0.8680419921875,0.12445068359375,0.12445068359375,9.427480916030534,-150.4732824427481,-46.908396946564885,587.1559633027523,-38.34862385321101,17.06422018348624,,
1760477406.0481424,0,-0.867919921875,0.12451171875,0.12445068359375,9.435114503816791,-150.4732824427481,-39.09160305343512,704.5871559633028,-38.53211009174312,17.889908256880734,,
1760477406.0699203,0,-0.86773681640625,0.12457275390625,0.12445068359375,9.419847328244275,-140.70229007633588,-11.732824427480915,610.6422018348624,-39.08256880733945,18.256880733944957,,
1760477406.0807102,0,-0.86761474609375,0.1243896484375,0.12432861328125,9.404580152671755,-171.96946564885496,-72.31297709923665,540.1834862385322,-38.34862385321101,17.98165137614679,,
1760477406.1015286,0,-0.867431640625,0.1243896484375,0.1243896484375,9.435114503816791,-150.4732824427481,-15.641221374045802,587.1559633027523,-38.1651376146789,17.155963302752294,,
1760477406.133129,0,-0.8673095703125,0.12451171875,0.12432861328125,9.412213740458014,-123.1145038167939,-31.27480916030534,892.4770642201836,-38.25688073394495,17.431192660550458,,
1760477406.1435635,0,-0.86712646484375,0.12451171875,0.1243896484375,9.442748091603054,-154.38167938931298,-37.13740458015267,563.6697247706422,-38.71559633027523,18.256880733944957,,
1760477406.164482,0,-0.86700439453125,0.12451171875,0.12445068359375,9.419847328244275,-125.06870229007632,-58.63358778625954,540.1834862385322,-38.62385321100918,18.073394495412845,,
1760477406.2062542,0,-0.8668212890625,0.12445068359375,0.12451171875,9.435114503816791,-156.33587786259542,-25.41221374045801,540.1834862385322,-38.53211009174312,18.073394495412845,,
1760477406.216892,0,-0.86669921875,0.12445068359375,0.1243896484375,9.419847328244275,-138.74809160305344,-7.824427480916031,469.72477064220186,-38.34862385321101,18.073394495412845,,
1760477406.2379775,0,-0.86651611328125,0.12457275390625,0.1243896484375,9.435114503816791,-134.83969465648855,-27.366412213740457,281.8348623853211,-38.99082568807339,16.972477064220186,,
1760477406.2486413,0,-0.86639404296875,0.12445068359375,0.1243896484375,9.427480916030534,-111.38931297709924,-23.45801526717557,822.0183486238533,-38.25688073394495,18.1651376146789,,
1760477406.270015,0,-0.8662109375,0.12451171875,0.12445068359375,9.450381679389311,-166.10687022900763,-56.6793893129771,704.5871559633028,-39.17431192660551,18.53211009174312,,
1760477406.280798,0,-0.8660888671875,0.12445068359375,0.12451171875,9.419847328244275,-166.10687022900763,-35.18320610687023,493.2110091743119,-38.25688073394495,18.256880733944957,,
1760477406.3021462,0,-0.86590576171875,0.12451171875,0.12451171875,9.419847328244275,-105.52671755725191,-41.045801526717554,516.6972477064221,-38.25688073394495,17.522935779816514,,
1760477406.3340058,0,-0.86578369140625,0.12445068359375,0.1243896484375,9.412213740458014,-142.65648854961833,-21.50381679389313,728.0733944954129,-38.62385321100918,18.440366972477065,,
1760477406.3447216,0,-0.8656005859375,0.12451171875,0.12432861328125,9.450381679389311,-146.5648854961832,-19.549618320610687,822.0183486238533,-38.07339449541284,17.706422018348626,,
1760477406.3661113,0,-0.865478515625,0.12445068359375,0.12432861328125,9.450381679389311,-162.19847328244273,-87.94656488549619,892.4770642201836,-38.440366972477065,18.073394495412845,,
1760477406.3874276,0,-0.86529541015625,0.12445068359375,0.12445068359375,9.419847328244275,-136.793893129771,-50.81679389312977,751.559633027523,-38.53211009174312,18.073394495412845,,
1760477406.3979096,0,-0.86517333984375,0.12457275390625,0.12445068359375,9.419847328244275,-170.01526717557252,-37.13740458015267,516.6972477064221,-38.07339449541284,18.256880733944957,,
1760477406.429067,0,-0.864990234375,0.1243896484375,0.12445068359375,9.412213740458014,-168.06106870229007,-33.229007633587784,493.2110091743119,-38.53211009174312,17.522935779816514,,
1760477406.439518,0,-0.8648681640625,0.12451171875,0.1243896484375,9.427480916030534,-148.51908396946564,-48.86259541984733,775.045871559633,-38.1651376146789,17.889908256880734,,
1760477406.4608223,0,-0.86468505859375,0.12457275390625,0.12445068359375,9.435114503816791,-127.02290076335878,-37.13740458015267,657.6146788990826,-38.34862385321101,17.339449541284406,,
1760477406.4926383,0,-0.86456298828125,0.12451171875,0.1243896484375,9.412213740458014,-150.4732824427481,-35.18320610687023,516.6972477064221,-37.88990825688073,17.79816513761468,,
1760477406.5034196,0,-0.8643798828125,0.12451171875,0.1243896484375,9.419847328244275,-152.42748091603053,-60.58778625954199,540.1834862385322,-38.99082568807339,18.1651376146789,,
1760477406.5247934,0,-0.8642578125,0.12451171875,0.12445068359375,9.404580152671755,-130.93129770992363,-35.18320610687023,845.5045871559633,-39.08256880733945,18.34862385321101,,
1760477406.5354173,0,-0.86407470703125,0.12451171875,0.12445068359375,9.442748091603054,-181.7404580152672,-35.18320610687023,868.9908256880734,-38.440366972477065,18.256880733944957,,
1760477406.5566306,0,-0.86395263671875,0.12451171875,0.1243896484375,9.435114503816791,-130.93129770992363,-46.908396946564885,775.045871559633,-37.98165137614679,17.61467889908257,,
1760477406.5884635,0,-0.86376953125,0.12457275390625,0.12445068359375,9.419847328244275,-140.70229007633588,-80.12977099236642,728.0733944954129,-38.07339449541284,17.24770642201835,,
1760477406.5992937,0,-0.8636474609375,0.1243896484375,0.12457275390625,9.427480916030534,-125.06870229007632,-25.41221374045801,681.1009174311927,-39.08256880733945,17.339449541284406,,
1760477406.620787,0,-0.86346435546875,0.12451171875,0.12445068359375,9.419847328244275,-123.1145038167939,-46.908396946564885,563.6697247706422,-38.99082568807339,17.79816513761468,,
1760477406.653057,0,-0.86334228515625,0.1243896484375,0.1243896484375,9.442748091603054,-164.15267175572518,-68.40458015267176,493.2110091743119,-38.53211009174312,17.98165137614679,,
1760477406.6639123,0,-0.8631591796875,0.1243896484375,0.12445068359375,9.442748091603054,-146.5648854961832,-46.908396946564885,634.1284403669725,-38.440366972477065,17.79816513761468,,
1760477406.6851602,0,-0.863037109375,0.12451171875,0.124267578125,9.419847328244275,-146.5648854961832,-3.916030534351145,751.559633027523,-38.07339449541284,17.79816513761468,,
1760477406.716764,0,-0.86285400390625,0.12451171875,0.12445068359375,9.435114503816791,-140.70229007633588,-44.954198473282446,399.2660550458716,-38.34862385321101,16.972477064220186,,
1760477406.7273335,0,-0.86273193359375,0.12451171875,0.1243896484375,9.404580152671755,-121.16030534351144,-31.27480916030534,681.1009174311927,-38.34862385321101,17.889908256880734,,
1760477406.738083,0,-0.862548828125,0.12445068359375,0.1243896484375,9.412213740458014,-150.4732824427481,-23.45801526717557,281.8348623853211,-38.53211009174312,18.1651376146789,,
1760477406.7488835,0,-0.8624267578125,0.12451171875,0.12457275390625,9.435114503816791,-136.793893129771,-37.13740458015267,587.1559633027523,-38.99082568807339,18.1651376146789,,
1760477406.7806034,0,-0.86224365234375,0.12451171875,0.1243896484375,9.427480916030534,-138.74809160305344,-31.27480916030534,775.045871559633,-38.99082568807339,18.34862385321101,,
1760477406.7913735,0,-0.86212158203125,0.12457275390625,0.1243896484375,9.427480916030534,-162.19847328244273,-68.40458015267176,587.1559633027523,-37.98165137614679,17.431192660550458,,
1760477406.8125367,0,-0.8619384765625,0.12457275390625,0.1243896484375,9.427480916030534,-148.51908396946564,-72.31297709923665,399.2660550458716,-38.1651376146789,17.522935779816514,,
1760477406.8233192,0,-0.86181640625,0.12451171875,0.124267578125,9.412213740458014,-146.5648854961832,-19.549618320610687,469.72477064220186,-38.53211009174312,17.522935779816514,,
1760477406.8445709,0,-0.86163330078125,0.12457275390625,0.1243896484375,9.419847328244275,-144.61068702290078,-74.26717557251908,728.0733944954129,-38.62385321100918,18.1651376146789,,
1760477406.8763735,0,-0.86151123046875,0.12445068359375,0.1243896484375,9.435114503816791,-144.61068702290078,-11.732824427480915,281.8348623853211,-38.53211009174312,18.34862385321101,,
1760477406.8870146,0,-0.861328125,0.12445068359375,0.1243896484375,9.412213740458014,-171.96946564885496,-48.86259541984733,281.8348623853211,-38.80733944954128,17.61467889908257,,
1760477406.90836,0,-0.8612060546875,0.12445068359375,0.12432861328125,9.442748091603054,-170.01526717557252,-23.45801526717557,375.7798165137615,-38.71559633027523,18.623853211009177,,
1760477406.9190867,0,-0.86102294921875,0.12451171875,0.12451171875,9.427480916030534,-148.51908396946564,-19.549618320610687,540.1834862385322,-38.34862385321101,16.972477064220186,,
1760477406.9404907,0,-0.86090087890625,0.12445068359375,0.12451171875,9.435114503816791,-115.29770992366412,-23.45801526717557,822.0183486238533,-37.98165137614679,17.522935779816514,,
1760477406.9722185,0,-0.8607177734375,0.12451171875,0.12445068359375,9.427480916030534,-125.06870229007632,-43.0,587.1559633027523,-39.08256880733945,17.522935779816514,,
1760477406.9829297,0,-0.860595703125,0.12445068359375,0.12457275390625,9.412213740458014,-168.06106870229007,-29.3206106870229,775.045871559633,-38.53211009174312,18.53211009174312,,
1760477407.00426,0,-0.86041259765625,0.1243896484375,0.1243896484375,9.442748091603054,-138.74809160305344,-33.229007633587784,704.5871559633028,-38.07339449541284,18.073394495412845,,
1760477407.0150318,0,-0.86029052734375,0.12445068359375,0.12451171875,9.419847328244275,-154.38167938931298,-29.3206106870229,657.6146788990826,-38.1651376146789,17.431192660550458,,
1760477407.0470376,0,-0.860107421875,0.12451171875,0.12432861328125,9.404580152671755,-150.4732824427481,-41.045801526717554,446.2385321100918,-38.99082568807339,17.522935779816514,,
1760477407.0684268,0,-0.8599853515625,0.12457275390625,0.12445068359375,9.419847328244275,-138.74809160305344,-31.27480916030534,775.045871559633,-38.62385321100918,17.522935779816514,,
1760477407.0790887,0,-0.85980224609375,0.12451171875,0.12451171875,9.427480916030534,-127.02290076335878,-9.778625954198471,469.72477064220186,-38.80733944954128,18.1651376146789,,
1760477407.100372,0,-0.85968017578125,0.12451171875,0.12445068359375,9.435114503816791,-142.65648854961833,-58.63358778625954,822.0183486238533,-38.440366972477065,18.256880733944957,,
1760477407.131968,0,-0.8594970703125,0.12445068359375,0.12445068359375,9.427480916030534,-134.83969465648855,-31.27480916030534,93.94495412844036,-38.53211009174312,17.98165137614679,,
1760477407.1428237,0,-0.859375,0.12445068359375,0.12432861328125,9.419847328244275,-128.9770992366412,-33.229007633587784,281.8348623853211,-37.88990825688073,17.61467889908257,,
1760477407.164014,0,-0.85919189453125,0.12457275390625,0.12445068359375,9.427480916030534,-148.51908396946564,-50.81679389312977,587.1559633027523,-38.25688073394495,17.98165137614679,,
1760477407.175001,0,-0.85906982421875,0.1243896484375,0.12445068359375,9.419847328244275,-154.38167938931298,-39.09160305343512,798.5321100917431,-37.88990825688073,17.431192660550458,,
1760477407.1963558,0,-0.85888671875,0.12457275390625,0.12457275390625,9.419847328244275,-134.83969465648855,-41.045801526717554,540.1834862385322,-38.80733944954128,18.256880733944957,,
1760477407.2282968,0,-0.8587646484375,0.12451171875,0.1246337890625,9.427480916030534,-166.10687022900763,-78.17557251908397,587.1559633027523,-38.899082568807344,18.440366972477065,,
1760477407.238983,0,-0.85858154296875,0.12451171875,0.1243896484375,9.427480916030534,-152.42748091603053,-23.45801526717557,563.6697247706422,-38.71559633027523,17.79816513761468,,
1760477407.2602184,0,-0.85845947265625,0.12451171875,0.12451171875,9.412213740458014,-160.24427480916032,-37.13740458015267,493.2110091743119,-38.62385321100918,17.98165137614679,,
1760477407.2709825,0,-0.8582763671875,0.12432861328125,0.12445068359375,9.412213740458014,-138.74809160305344,-33.229007633587784,493.2110091743119,-38.34862385321101,17.522935779816514,,
1760477407.2922895,0,-0.858154296875,0.12457275390625,0.12451171875,9.419847328244275,-148.51908396946564,-64.49618320610686,516.6972477064221,-38.440366972477065,17.706422018348626,,
1760477407.3240783,0,-0.85797119140625,0.12451171875,0.12445068359375,9.435114503816791,-164.15267175572518,-15.641221374045802,446.2385321100918,-38.62385321100918,17.79816513761468,,
1760477407.334777,0,-0.85784912109375,0.1243896484375,0.12432861328125,9.389312977099236,-144.61068702290078,-15.641221374045802,657.6146788990826,-38.62385321100918,18.34862385321101,,
1760477407.355992,0,-0.857666015625,0.12445068359375,0.12451171875,9.412213740458014,-152.42748091603053,-29.3206106870229,610.6422018348624,-38.07339449541284,17.889908256880734,,
1760477407.3982434,0,-0.8575439453125,0.12451171875,0.12445068359375,9.412213740458014,-148.51908396946564,-25.41221374045801,704.5871559633028,-38.34862385321101,17.706422018348626,,
1760477407.4090662,0,-0.85736083984375,0.12451171875,0.12445068359375,9.427480916030534,-152.42748091603053,-58.63358778625954,657.6146788990826,-38.25688073394495,16.88073394495413,,
1760477407.4198844,0,-0.85723876953125,0.1243896484375,0.12451171875,9.404580152671755,-158.29007633587787,-37.13740458015267,751.559633027523,-38.34862385321101,17.79816513761468,,
1760477407.451725,0,-0.8570556640625,0.12445068359375,0.12457275390625,9.427480916030534,-166.10687022900763,-56.6793893129771,399.2660550458716,-38.80733944954128,17.889908256880734,,
1760477407.462501,0,-0.85693359375,0.12451171875,0.1243896484375,9.419847328244275,-150.4732824427481,-44.954198473282446,516.6972477064221,-39.63302752293578,18.073394495412845,,
1760477407.4838912,0,-0.85675048828125,0.1243896484375,0.12445068359375,9.435114503816791,-152.42748091603053,-50.81679389312977,305.3211009174312,-38.25688073394495,17.889908256880734,,
1760477407.4946015,0,-0.85662841796875,0.12445068359375,0.1243896484375,9.442748091603054,-160.24427480916032,-44.954198473282446,915.9633027522935,-38.53211009174312,18.1651376146789,,
1760477407.5160563,0,-0.8564453125,0.12445068359375,0.1243896484375,9.412213740458014,-119.206106870229,-46.908396946564885,681.1009174311927,-37.61467889908257,17.522935779816514,,
1760477407.5268097,0,-0.8563232421875,0.1246337890625,0.12469482421875,9.427480916030534,-138.74809160305344,-31.27480916030534,610.6422018348624,-38.62385321100918,17.155963302752294,,
1760477407.5481224,0,-0.85614013671875,0.12457275390625,0.12445068359375,9.419847328244275,-156.33587786259542,-21.50381679389313,399.2660550458716,-38.440366972477065,17.98165137614679,,
1760477407.5800953,0,-0.85601806640625,0.12457275390625,0.1243896484375,9.442748091603054,-150.4732824427481,-72.31297709923665,258.34862385321105,-38.53211009174312,17.79816513761468,,
1760477407.5909104,0,-0.8558349609375,0.1243896484375,0.12451171875,9.435114503816791,-142.65648854961833,-64.49618320610686,634.1284403669725,-38.440366972477065,17.79816513761468,,
1760477407.6122315,0,-0.855712890625,0.1243896484375,0.1243896484375,9.404580152671755,-134.83969465648855,-19.549618320610687,328.8073394495413,-38.62385321100918,18.1651376146789,,
1760477407.6440854,0,-0.85552978515625,0.12451171875,0.1243896484375,9.412213740458014,-138.74809160305344,-35.18320610687023,681.1009174311927,-38.34862385321101,17.61467889908257,,
1760477407.6548507,0,-0.85540771484375,0.12445068359375,0.12432861328125,9.419847328244275,-150.4732824427481,-27.366412213740457,657.6146788990826,-38.34862385321101,17.889908256880734,,
1760477407.676091,0,-0.855224609375,0.12451171875,0.12445068359375,9.435114503816791,-152.42748091603053,-39.09160305343512,822.0183486238533,-38.62385321100918,17.889908256880734,,
1760477407.6868584,0,-0.8551025390625,0.12445068359375,0.12445068359375,9.427480916030534,-128.9770992366412,-44.954198473282446,375.7798165137615,-38.07339449541284,17.98165137614679,,
1760477407.7082243,0,-0.85491943359375,0.12457275390625,0.1243896484375,9.404580152671755,-142.65648854961833,-27.366412213740457,516.6972477064221,-37.61467889908257,18.34862385321101,,
1760477407.7399583,0,-0.85479736328125,0.12451171875,0.12432861328125,9.427480916030534,-148.51908396946564,-44.954198473282446,610.6422018348624,-38.1651376146789,17.522935779816514,,
1760477407.75071,0,-0.8546142578125,0.12451171875,0.12451171875,9.427480916030534,-105.52671755725191,-25.41221374045801,751.559633027523,-37.70642201834863,17.06422018348624,,
1760477407.7719548,0,-0.8544921875,0.12451171875,0.1243896484375,9.404580152671755,-162.19847328244273,-84.0381679389313,657.6146788990826,-38.440366972477065,17.706422018348626,,
1760477407.7827013,0,-0.85430908203125,0.12451171875,0.12445068359375,9.427480916030534,-156.33587786259542,-52.770992366412216,469.72477064220186,-38.1651376146789,17.889908256880734,,
1760477407.804088,0,-0.85418701171875,0.12457275390625,0.1243896484375,9.435114503816791,-136.793893129771,-35.18320610687023,422.7522935779817,-38.440366972477065,18.71559633027523,,
1760477407.836014,0,-0.85400390625,0.12451171875,0.12451171875,9.412213740458014,-148.51908396946564,-44.954198473282446,704.5871559633028,-37.79816513761468,18.1651376146789,,
1760477407.8469028,0,-0.8538818359375,0.12445068359375,0.1243896484375,9.435114503816791,-173.9236641221374,-37.13740458015267,540.1834862385322,-38.71559633027523,17.339449541284406,,
1760477407.8684416,0,-0.85369873046875,0.12457275390625,0.12445068359375,9.427480916030534,-148.51908396946564,-27.366412213740457,751.559633027523,-38.62385321100918,16.972477064220186,,
1760477407.900368,0,-0.85357666015625,0.12451171875,0.12451171875,9.419847328244275,-156.33587786259542,-43.0,422.7522935779817,-38.53211009174312,17.98165137614679,,
1760477407.9111254,0,-0.8533935546875,0.12451171875,0.1243896484375,9.435114503816791,-144.61068702290078,-23.45801526717557,657.6146788990826,-38.899082568807344,17.79816513761468,,
1760477407.9324822,0,-0.853271484375,0.12445068359375,0.12451171875,9.389312977099236,-101.61832061068702,-48.86259541984733,634.1284403669725,-38.440366972477065,17.98165137614679,,
1760477407.9643698,0,-0.85308837890625,0.12451171875,0.12451171875,9.419847328244275,-146.5648854961832,-29.3206106870229,634.1284403669725,-38.34862385321101,17.706422018348626,,
1760477407.975116,0,-0.85296630859375,0.12445068359375,0.12445068359375,9.412213740458014,-119.206106870229,-41.045801526717554,728.0733944954129,-38.71559633027523,17.522935779816514,,
1760477407.9965105,0,-0.852783203125,0.12457275390625,0.12432861328125,9.419847328244275,-134.83969465648855,-56.6793893129771,634.1284403669725,-38.440366972477065,17.431192660550458,,
1760477408.0072489,0,-0.8526611328125,0.12451171875,0.12445068359375,9.435114503816791,-164.15267175572518,-43.0,1127.3394495412845,-38.80733944954128,17.431192660550458,,
1760477408.0288448,0,-0.85247802734375,0.12451171875,0.12432861328125,9.419847328244275,-130.93129770992363,-44.954198473282446,845.5045871559633,-38.62385321100918,17.98165137614679,,
1760477408.039243,0,-0.85235595703125,0.12451171875,0.12451171875,9.442748091603054,-170.01526717557252,-35.18320610687023,493.2110091743119,-38.99082568807339,18.073394495412845,,
1760477408.0599632,0,-0.8521728515625,0.1243896484375,0.12445068359375,9.442748091603054,-142.65648854961833,-35.18320610687023,493.2110091743119,-37.61467889908257,18.073394495412845,,
1760477408.0912874,0,-0.85205078125,0.12445068359375,0.12451171875,9.412213740458014,-166.10687022900763,-19.549618320610687,493.2110091743119,-37.88990825688073,17.431192660550458,,
1760477408.1018004,0,-0.85186767578125,0.12451171875,0.12445068359375,9.427480916030534,-138.74809160305344,-17.595419847328245,704.5871559633028,-38.1651376146789,17.61467889908257,,
1760477408.1225772,0,-0.85174560546875,0.12451171875,0.12451171875,9.450381679389311,-168.06106870229007,-19.549618320610687,610.6422018348624,-37.70642201834863,17.98165137614679,,
1760477408.1330526,0,-0.8515625,0.12445068359375,0.1243896484375,9.427480916030534,-138.74809160305344,-23.45801526717557,728.0733944954129,-38.34862385321101,18.073394495412845,,
1760477408.1538978,0,-0.8514404296875,0.12457275390625,0.12432861328125,9.419847328244275,-144.61068702290078,-39.09160305343512,751.559633027523,-38.07339449541284,18.34862385321101,,
1760477408.1851294,0,-0.85125732421875,0.12451171875,0.12445068359375,9.427480916030534,-134.83969465648855,-23.45801526717557,610.6422018348624,-38.440366972477065,17.98165137614679,,
1760477408.195675,0,-0.85113525390625,0.12451171875,0.12432861328125,9.427480916030534,-130.93129770992363,-46.908396946564885,798.5321100917431,-38.07339449541284,18.073394495412845,,
1760477408.2169938,0,-0.8509521484375,0.12451171875,0.12432861328125,9.435114503816791,-146.5648854961832,-58.63358778625954,587.1559633027523,-38.80733944954128,17.706422018348626,,
1760477408.2488124,0,-0.850830078125,0.12451171875,0.1243896484375,9.427480916030534,-156.33587786259542,-41.045801526717554,540.1834862385322,-38.34862385321101,17.522935779816514,,
1760477408.2595863,0,-0.85064697265625,0.12457275390625,0.12445068359375,9.442748091603054,-144.61068702290078,-66.45038167938931,422.7522935779817,-38.440366972477065,18.440366972477065,,
1760477408.2806823,0,-0.85052490234375,0.12445068359375,0.12445068359375,9.419847328244275,-150.4732824427481,-43.0,540.1834862385322,-39.26605504587156,18.256880733944957,,
1760477408.3116066,0,-0.850341796875,0.12445068359375,0.12445068359375,9.419847328244275,-160.24427480916032,-13.687022900763358,610.6422018348624,-38.440366972477065,18.440366972477065,,
1760477408.3219688,0,-0.8502197265625,0.12445068359375,0.12451171875,9.419847328244275,-123.1145038167939,-35.18320610687023,493.2110091743119,-38.34862385321101,17.79816513761468,,
1760477408.3425648,0,-0.85003662109375,0.12445068359375,0.12445068359375,9.419847328244275,-132.8854961832061,-56.6793893129771,399.2660550458716,-38.99082568807339,17.61467889908257,,
1760477408.3529172,0,-0.84991455078125,0.12451171875,0.1243896484375,9.427480916030534,-156.33587786259542,-39.09160305343512,775.045871559633,-39.17431192660551,17.98165137614679,,
1760477408.3736596,0,-0.8497314453125,0.12445068359375,0.12445068359375,9.419847328244275,-164.15267175572518,-52.770992366412216,657.6146788990826,-39.17431192660551,18.256880733944957,,
1760477408.3943012,0,-0.849609375,0.12445068359375,0.12445068359375,9.427480916030534,-150.4732824427481,-25.41221374045801,610.6422018348624,-38.07339449541284,17.61467889908257,,
1760477408.4046988,0,-0.84942626953125,0.12432861328125,0.1243896484375,9.435114503816791,-173.9236641221374,-50.81679389312977,540.1834862385322,-38.34862385321101,17.61467889908257,,
1760477408.435823,0,-0.84930419921875,0.12451171875,0.12445068359375,9.412213740458014,-138.74809160305344,-70.3587786259542,657.6146788990826,-38.62385321100918,18.073394495412845,,
1760477408.457021,0,-0.84912109375,0.12469482421875,0.12451171875,9.412213740458014,-127.02290076335878,-35.18320610687023,751.559633027523,-38.07339449541284,18.256880733944957,,
1760477408.467997,0,-0.8489990234375,0.12451171875,0.12445068359375,9.419847328244275,-152.42748091603053,-21.50381679389313,610.6422018348624,-38.80733944954128,17.98165137614679,,
1760477408.4892917,0,-0.84881591796875,0.1243896484375,0.12432861328125,9.435114503816791,-119.206106870229,-46.908396946564885,587.1559633027523,-38.07339449541284,17.98165137614679,,
1760477408.520847,0,-0.84869384765625,0.12445068359375,0.12451171875,9.442748091603054,-164.15267175572518,-3.916030534351145,610.6422018348624,-38.80733944954128,17.431192660550458,,
1760477408.5316176,0,-0.8485107421875,0.12445068359375,0.1243896484375,9.427480916030534,-138.74809160305344,-44.954198473282446,681.1009174311927,-38.80733944954128,17.889908256880734,,
1760477408.55299,0,-0.848388671875,0.12445068359375,0.12451171875,9.419847328244275,-150.4732824427481,-50.81679389312977,1127.3394495412845,-38.53211009174312,17.79816513761468,,
1760477408.5850253,0,-0.84820556640625,0.1243896484375,0.1243896484375,9.442748091603054,-130.93129770992363,-21.50381679389313,587.1559633027523,-38.25688073394495,17.889908256880734,,
1760477408.5958817,0,-0.84808349609375,0.12451171875,0.1243896484375,9.412213740458014,-148.51908396946564,-74.26717557251908,399.2660550458716,-38.53211009174312,18.1651376146789,,
1760477408.6171374,0,-0.847900390625,0.12457275390625,0.12445068359375,9.412213740458014,-146.5648854961832,-68.40458015267176,634.1284403669725,-38.71559633027523,18.34862385321101,,
1760477408.6278694,0,-0.8477783203125,0.12445068359375,0.124267578125,9.435114503816791,-148.51908396946564,-17.595419847328245,610.6422018348624,-38.62385321100918,18.256880733944957,,
1760477408.6488285,0,-0.84759521484375,0.12445068359375,0.1243896484375,9.427480916030534,-148.51908396946564,-23.45801526717557,822.0183486238533,-38.899082568807344,17.706422018348626,,
1760477408.659409,0,-0.84747314453125,0.12457275390625,0.12451171875,9.427480916030534,-154.38167938931298,-56.6793893129771,681.1009174311927,-38.1651376146789,17.24770642201835,,
1760477408.6806169,0,-0.8472900390625,0.1243896484375,0.12432861328125,9.404580152671755,-127.02290076335878,-29.3206106870229,704.5871559633028,-38.62385321100918,18.256880733944957,,
1760477408.7121449,0,-0.84716796875,0.12445068359375,0.12451171875,9.419847328244275,-140.70229007633588,-64.49618320610686,681.1009174311927,-38.440366972477065,18.623853211009177,,
1760477408.7227595,0,-0.84698486328125,0.12451171875,0.1243896484375,9.412213740458014,-158.29007633587787,-13.687022900763358,234.86238532110093,-38.80733944954128,17.98165137614679,,
1760477408.7442353,0,-0.84686279296875,0.1243896484375,0.12451171875,9.427480916030534,-123.1145038167939,-17.595419847328245,540.1834862385322,-38.62385321100918,18.34862385321101,,
1760477408.7755833,0,-0.8466796875,0.1243896484375,0.1243896484375,9.442748091603054,-166.10687022900763,-21.50381679389313,610.6422018348624,-38.25688073394495,18.1651376146789,,
1760477408.7860026,0,-0.8465576171875,0.12445068359375,0.12432861328125,9.427480916030534,-144.61068702290078,-74.26717557251908,446.2385321100918,-38.62385321100918,17.24770642201835,,
1760477408.8067577,0,-0.84637451171875,0.12445068359375,0.1243896484375,9.435114503816791,-171.96946564885496,-64.49618320610686,469.72477064220186,-38.440366972477065,17.889908256880734,,
1760477408.8171742,0,-0.84625244140625,0.1246337890625,0.12445068359375,9.435114503816791,-158.29007633587787,-21.50381679389313,610.6422018348624,-38.07339449541284,18.256880733944957,,
1760477408.837923,0,-0.8460693359375,0.12451171875,0.1243896484375,9.435114503816791,-152.42748091603053,-11.732824427480915,657.6146788990826,-38.99082568807339,18.256880733944957,,
1760477408.8690808,0,-0.845947265625,0.12451171875,0.12451171875,9.450381679389311,-144.61068702290078,-64.49618320610686,845.5045871559633,-38.34862385321101,17.79816513761468,,
1760477408.8796723,0,-0.84576416015625,0.12451171875,0.12457275390625,9.404580152671755,-138.74809160305344,-31.27480916030534,728.0733944954129,-38.440366972477065,17.24770642201835,,
1760477408.9009275,0,-0.84564208984375,0.1243896484375,0.12432861328125,9.396946564885496,-156.33587786259542,-7.824427480916031,681.1009174311927,-38.62385321100918,17.522935779816514,,
1760477408.9325545,0,-0.845458984375,0.12451171875,0.12451171875,9.427480916030534,-144.61068702290078,-43.0,540.1834862385322,-37.88990825688073,17.889908256880734,,
1760477408.9433208,0,-0.8453369140625,0.12445068359375,0.1243896484375,9.427480916030534,-170.01526717557252,-58.63358778625954,822.0183486238533,-38.71559633027523,17.61467889908257,,
1760477408.9646904,0,-0.84515380859375,0.1243896484375,0.12432861328125,9.412213740458014,-140.70229007633588,-41.045801526717554,352.2935779816514,-38.1651376146789,18.53211009174312,,
1760477408.9754624,0,-0.84503173828125,0.12445068359375,0.12457275390625,9.419847328244275,-150.4732824427481,-31.27480916030534,587.1559633027523,-38.53211009174312,17.706422018348626,,
1760477408.9968162,0,-0.8448486328125,0.12457275390625,0.12445068359375,9.427480916030534,-136.793893129771,-60.58778625954199,305.3211009174312,-38.34862385321101,17.79816513761468,,
1760477409.028362,0,-0.8447265625,0.12451171875,0.1243896484375,9.435114503816791,-130.93129770992363,-25.41221374045801,657.6146788990826,-37.79816513761468,17.431192660550458,,
1760477409.039014,0,-0.84454345703125,0.12457275390625,0.12451171875,9.412213740458014,-152.42748091603053,-66.45038167938931,610.6422018348624,-38.80733944954128,17.889908256880734,,
1760477409.0602443,0,-0.84442138671875,0.12445068359375,0.1243896484375,9.419847328244275,-140.70229007633588,-50.81679389312977,798.5321100917431,-38.34862385321101,17.431192660550458,,
1760477409.091715,0,-0.84423828125,0.12457275390625,0.12445068359375,9.412213740458014,-125.06870229007632,-72.31297709923665,939.4495412844036,-38.80733944954128,17.79816513761468,,
1760477409.1024115,0,-0.8441162109375,0.12451171875,0.12445068359375,9.458015267175572,-138.74809160305344,-62.54198473282442,657.6146788990826,-38.1651376146789,17.706422018348626,,
1760477409.123584,0,-0.84393310546875,0.12445068359375,0.1243896484375,9.427480916030534,-117.25190839694656,-37.13740458015267,704.5871559633028,-38.07339449541284,17.339449541284406,,
1760477409.1551409,0,-0.84381103515625,0.12451171875,0.12445068359375,9.419847328244275,-146.5648854961832,-60.58778625954199,422.7522935779817,-38.34862385321101,17.522935779816514,,
1760477409.165806,0,-0.8436279296875,0.12445068359375,0.1243896484375,9.404580152671755,-132.8854961832061,-31.27480916030534,540.1834862385322,-38.62385321100918,17.79816513761468,,
1760477409.1870654,0,-0.843505859375,0.12451171875,0.12445068359375,9.427480916030534,-140.70229007633588,-64.49618320610686,610.6422018348624,-38.1651376146789,17.522935779816514,,
1760477409.218598,0,-0.84332275390625,0.12445068359375,0.12451171875,9.419847328244275,-144.61068702290078,-25.41221374045801,798.5321100917431,-38.62385321100918,17.889908256880734,,
1760477409.2294197,0,-0.84320068359375,0.12451171875,0.12445068359375,9.412213740458014,-134.83969465648855,-35.18320610687023,610.6422018348624,-38.62385321100918,17.522935779816514,,
1760477409.2401595,0,-0.843017578125,0.1243896484375,0.12445068359375,9.435114503816791,-170.01526717557252,-48.86259541984733,868.9908256880734,-38.1651376146789,17.431192660550458,,
1760477409.2510145,0,-0.8428955078125,0.12445068359375,0.1243896484375,9.419847328244275,-125.06870229007632,-33.229007633587784,728.0733944954129,-38.440366972477065,17.24770642201835,,
1760477409.282715,0,-0.84271240234375,0.12457275390625,0.12445068359375,9.435114503816791,-154.38167938931298,-29.3206106870229,775.045871559633,-38.71559633027523,17.61467889908257,,
1760477409.2935188,0,-0.84259033203125,0.12451171875,0.1243896484375,9.427480916030534,-138.74809160305344,-27.366412213740457,446.2385321100918,-37.98165137614679,16.69724770642202,,
1760477409.314847,0,-0.8424072265625,0.12451171875,0.12451171875,9.412213740458014,-156.33587786259542,-13.687022900763358,516.6972477064221,-38.440366972477065,18.34862385321101,,
1760477409.325487,0,-0.84228515625,0.12457275390625,0.12451171875,9.427480916030534,-132.8854961832061,-27.366412213740457,704.5871559633028,-38.07339449541284,17.522935779816514,,
1760477409.3469017,0,-0.84210205078125,0.12457275390625,0.12445068359375,9.435114503816791,-136.793893129771,-3.916030534351145,469.72477064220186,-38.71559633027523,17.889908256880734,,
1760477409.3788571,0,-0.84197998046875,0.12451171875,0.1243896484375,9.404580152671755,-173.9236641221374,-52.770992366412216,775.045871559633,-39.26605504587156,17.889908256880734,,
1760477409.3895447,0,-0.841796875,0.12451171875,0.1243896484375,9.435114503816791,-152.42748091603053,-31.27480916030534,422.7522935779817,-38.440366972477065,16.972477064220186,,
1760477409.4110014,0,-0.8416748046875,0.12445068359375,0.1243896484375,9.419847328244275,-140.70229007633588,-43.0,775.045871559633,-38.1651376146789,17.522935779816514,,
1760477409.4322858,0,-0.84149169921875,0.12451171875,0.1243896484375,9.427480916030534,-150.4732824427481,-31.27480916030534,892.4770642201836,-38.899082568807344,17.889908256880734,,
1760477409.4429042,0,-0.84136962890625,0.12445068359375,0.12445068359375,9.427480916030534,-144.61068702290078,-44.954198473282446,563.6697247706422,-38.53211009174312,17.431192660550458,,
1760477409.4642093,0,-0.8411865234375,0.12445068359375,0.12451171875,9.427480916030534,-146.5648854961832,-33.229007633587784,540.1834862385322,-39.08256880733945,17.889908256880734,,
1760477409.4960585,0,-0.841064453125,0.12445068359375,0.12445068359375,9.442748091603054,-144.61068702290078,-64.49618320610686,657.6146788990826,-38.71559633027523,17.889908256880734,,
1760477409.506848,0,-0.84088134765625,0.12451171875,0.12445068359375,9.419847328244275,-170.01526717557252,-56.6793893129771,563.6697247706422,-38.80733944954128,17.98165137614679,,
1760477409.5281255,0,-0.84075927734375,0.12451171875,0.12445068359375,9.419847328244275,-127.02290076335878,-13.687022900763358,469.72477064220186,-38.07339449541284,17.06422018348624,,
1760477409.559847,0,-0.840576171875,0.12451171875,0.12445068359375,9.419847328244275,-158.29007633587787,-41.045801526717554,775.045871559633,-38.1651376146789,17.889908256880734,,
1760477409.5707726,0,-0.8404541015625,0.1243896484375,0.12445068359375,9.427480916030534,-128.9770992366412,-44.954198473282446,540.1834862385322,-38.62385321100918,18.1651376146789,,
1760477409.5923543,0,-0.84027099609375,0.12457275390625,0.12432861328125,9.427480916030534,-148.51908396946564,-74.26717557251908,634.1284403669725,-38.71559633027523,18.440366972477065,,
1760477409.603166,0,-0.84014892578125,0.1243896484375,0.12445068359375,9.412213740458014,-152.42748091603053,-21.50381679389313,775.045871559633,-38.53211009174312,17.98165137614679,,
1760477409.624607,0,-0.8399658203125,0.12451171875,0.12451171875,9.419847328244275,-160.24427480916032,-52.770992366412216,446.2385321100918,-38.80733944954128,17.79816513761468,,
1760477409.6564174,0,-0.83984375,0.12451171875,0.12457275390625,9.419847328244275,-168.06106870229007,-70.3587786259542,399.2660550458716,-38.53211009174312,17.706422018348626,,
1760477409.6671226,0,-0.83966064453125,0.1243896484375,0.1243896484375,9.419847328244275,-134.83969465648855,-37.13740458015267,516.6972477064221,-38.899082568807344,17.61467889908257,,
1760477409.677919,0,-0.83953857421875,0.12451171875,0.1243896484375,9.412213740458014,-177.8320610687023,-11.732824427480915,446.2385321100918,-38.440366972477065,17.61467889908257,,
1760477409.709797,0,-0.83935546875,0.12432861328125,0.1243896484375,9.427480916030534,-173.9236641221374,-13.687022900763358,422.7522935779817,-38.440366972477065,18.34862385321101,,
1760477409.7205398,0,-0.8392333984375,0.1243896484375,0.12445068359375,9.412213740458014,-142.65648854961833,-9.778625954198471,375.7798165137615,-38.62385321100918,17.522935779816514,,
1760477409.7419512,0,-0.83905029296875,0.12445068359375,0.12445068359375,9.435114503816791,-136.793893129771,-21.50381679389313,493.2110091743119,-39.17431192660551,18.073394495412845,,
1760477409.77391,0,-0.83892822265625,0.12451171875,0.12445068359375,9.435114503816791,-128.9770992366412,-43.0,610.6422018348624,-38.34862385321101,17.522935779816514,,
1760477409.7846284,0,-0.8387451171875,0.12445068359375,0.1243896484375,9.427480916030534,-134.83969465648855,-37.13740458015267,610.6422018348624,-37.88990825688073,17.889908256880734,,
1760477409.806032,0,-0.838623046875,0.1243896484375,0.12445068359375,9.427480916030534,-148.51908396946564,-80.12977099236642,704.5871559633028,-38.62385321100918,17.98165137614679,,
1760477409.8380003,0,-0.83843994140625,0.12457275390625,0.12457275390625,9.419847328244275,-187.6030534351145,-54.725190839694655,446.2385321100918,-38.07339449541284,17.61467889908257,,
1760477409.8488402,0,-0.83831787109375,0.12445068359375,0.12451171875,9.427480916030534,-121.16030534351144,-52.770992366412216,704.5871559633028,-38.1651376146789,17.522935779816514,,
1760477409.8701725,0,-0.838134765625,0.12451171875,0.1243896484375,9.419847328244275,-144.61068702290078,-35.18320610687023,516.6972477064221,-38.71559633027523,17.339449541284406,,
1760477409.880931,0,-0.8380126953125,0.12451171875,0.12445068359375,9.435114503816791,-152.42748091603053,-31.27480916030534,352.2935779816514,-38.34862385321101,18.073394495412845,,
1760477409.9022102,0,-0.83782958984375,0.12445068359375,0.1243896484375,9.419847328244275,-168.06106870229007,-23.45801526717557,775.045871559633,-38.899082568807344,17.98165137614679,,
1760477409.9129424,0,-0.83770751953125,0.12451171875,0.12445068359375,9.419847328244275,-142.65648854961833,-3.916030534351145,610.6422018348624,-38.440366972477065,17.706422018348626,,
1760477409.9343193,0,-0.8375244140625,0.12445068359375,0.1243896484375,9.419847328244275,-148.51908396946564,-31.27480916030534,469.72477064220186,-38.71559633027523,17.98165137614679,,
1760477409.966079,0,-0.83740234375,0.12451171875,0.1243896484375,9.442748091603054,-95.7557251908397,-41.045801526717554,563.6697247706422,-38.53211009174312,17.431192660550458,,
1760477409.977273,0,-0.83721923828125,0.12445068359375,0.12451171875,9.442748091603054,-146.5648854961832,-46.908396946564885,493.2110091743119,-37.79816513761468,18.440366972477065,,
1760477410.000456,0,-0.83709716796875,0.12451171875,0.12445068359375,9.419847328244275,-109.4351145038168,-35.18320610687023,775.045871559633,-37.88990825688073,16.972477064220186,,
1760477410.021131,0,-0.8369140625,0.12451171875,0.12432861328125,9.435114503816791,-111.38931297709924,-31.27480916030534,587.1559633027523,-38.07339449541284,18.073394495412845,,
1760477410.03151,0,-0.8367919921875,0.12451171875,0.12445068359375,9.412213740458014,-158.29007633587787,-19.549618320610687,540.1834862385322,-38.25688073394495,17.339449541284406,,
1760477410.063088,0,-0.83660888671875,0.12445068359375,0.1243896484375,9.427480916030534,-146.5648854961832,-27.366412213740457,822.0183486238533,-38.71559633027523,18.71559633027523,,
1760477410.073462,0,-0.83648681640625,0.12451171875,0.1243896484375,9.427480916030534,-140.70229007633588,-33.229007633587784,610.6422018348624,-38.07339449541284,17.61467889908257,,
1760477410.0839434,0,-0.8363037109375,0.12451171875,0.12451171875,9.419847328244275,-134.83969465648855,-23.45801526717557,587.1559633027523,-38.07339449541284,17.339449541284406,,
1760477410.1149132,0,-0.836181640625,0.12445068359375,0.12457275390625,9.419847328244275,-144.61068702290078,-74.26717557251908,704.5871559633028,-38.62385321100918,17.79816513761468,,
1760477410.1253622,0,-0.83599853515625,0.12451171875,0.12445068359375,9.435114503816791,-175.87786259541986,5.862595419847328,915.9633027522935,-38.71559633027523,17.522935779816514,,
1760477410.1462357,0,-0.83587646484375,0.12445068359375,0.12445068359375,9.427480916030534,-142.65648854961833,-1.9618320610687023,704.5871559633028,-38.440366972477065,17.522935779816514,,
1760477410.1778722,0,-0.835693359375,0.12451171875,0.12445068359375,9.404580152671755,-156.33587786259542,-46.908396946564885,681.1009174311927,-38.34862385321101,18.073394495412845,,
1760477410.188619,0,-0.8355712890625,0.12445068359375,0.12445068359375,9.435114503816791,-140.70229007633588,-74.26717557251908,704.5871559633028,-38.899082568807344,17.61467889908257,,
1760477410.210028,0,-0.83538818359375,0.1243896484375,0.1243896484375,9.442748091603054,-170.01526717557252,-39.09160305343512,446.2385321100918,-39.26605504587156,17.889908256880734,,
1760477410.220937,0,-0.83526611328125,0.12451171875,0.12451171875,9.427480916030534,-166.10687022900763,-41.045801526717554,868.9908256880734,-38.71559633027523,17.155963302752294,,
1760477410.24222,0,-0.8350830078125,0.12451171875,0.12451171875,9.404580152671755,-173.9236641221374,-54.725190839694655,657.6146788990826,-37.70642201834863,17.706422018348626,,
1760477410.274323,0,-0.8349609375,0.12451171875,0.1243896484375,9.412213740458014,-140.70229007633588,-27.366412213740457,657.6146788990826,-38.62385321100918,18.1651376146789,,
1760477410.2850018,0,-0.83477783203125,0.12457275390625,0.12451171875,9.419847328244275,-146.5648854961832,-31.27480916030534,868.9908256880734,-38.53211009174312,17.98165137614679,,
1760477410.3063731,0,-0.83465576171875,0.12445068359375,0.1243896484375,9.412213740458014,-152.42748091603053,-19.549618320610687,375.7798165137615,-38.80733944954128,17.79816513761468,,
1760477410.338252,0,-0.83447265625,0.12451171875,0.12457275390625,9.419847328244275,-171.96946564885496,-25.41221374045801,375.7798165137615,-38.440366972477065,17.24770642201835,,
1760477410.348778,0,-0.8343505859375,0.12445068359375,0.12432861328125,9.427480916030534,-146.5648854961832,-62.54198473282442,563.6697247706422,-38.1651376146789,17.706422018348626,,
1760477410.36946,0,-0.83416748046875,0.12445068359375,0.1243896484375,9.427480916030534,-138.74809160305344,-52.770992366412216,563.6697247706422,-38.99082568807339,17.79816513761468,,
1760477410.400478,0,-0.83404541015625,0.12445068359375,0.12451171875,9.435114503816791,-154.38167938931298,-52.770992366412216,563.6697247706422,-38.53211009174312,18.256880733944957,,
1760477410.4109845,0,-0.8338623046875,0.1243896484375,0.12451171875,9.419847328244275,-168.06106870229007,-37.13740458015267,540.1834862385322,-38.71559633027523,17.98165137614679,,
1760477410.4318454,0,-0.833740234375,0.12451171875,0.12451171875,9.419847328244275,-111.38931297709924,-15.641221374045802,798.5321100917431,-38.80733944954128,17.79816513761468,,
1760477410.463097,0,-0.83355712890625,0.12451171875,0.12451171875,9.412213740458014,-152.42748091603053,-31.27480916030534,469.72477064220186,-38.1651376146789,17.98165137614679,,
1760477410.4735785,0,-0.83343505859375,0.12451171875,0.12445068359375,9.419847328244275,-158.29007633587787,-9.778625954198471,915.9633027522935,-38.71559633027523,17.155963302752294,,
1760477410.4945242,0,-0.833251953125,0.1243896484375,0.1243896484375,9.427480916030534,-179.78625954198472,-0.0076335877862595,634.1284403669725,-38.34862385321101,17.79816513761468,,
1760477410.5258825,0,-0.8331298828125,0.12445068359375,0.12445068359375,9.435114503816791,-125.06870229007632,-11.732824427480915,563.6697247706422,-38.899082568807344,17.98165137614679,,
1760477410.5365632,0,-0.83294677734375,0.12457275390625,0.124267578125,9.419847328244275,-140.70229007633588,-56.6793893129771,845.5045871559633,-38.80733944954128,18.34862385321101,,
1760477410.557987,0,-0.83282470703125,0.1246337890625,0.12451171875,9.396946564885496,-156.33587786259542,-17.595419847328245,704.5871559633028,-38.53211009174312,17.522935779816514,,
1760477410.5686684,0,-0.8326416015625,0.12408447265625,0.12432861328125,9.442748091603054,-132.8854961832061,-19.549618320610687,516.6972477064221,-38.80733944954128,17.889908256880734,,
1760477410.579312,0,-0.83251953125,0.1243896484375,0.12451171875,9.427480916030534,-152.42748091603053,-23.45801526717557,634.1284403669725,-38.34862385321101,17.61467889908257,,
1760477410.5899854,0,-0.83233642578125,0.12457275390625,0.1246337890625,9.458015267175572,-152.42748091603053,-33.229007633587784,681.1009174311927,-38.80733944954128,17.339449541284406,,
1760477410.6115425,0,-0.83221435546875,0.1243896484375,0.12457275390625,9.412213740458014,-154.38167938931298,-70.3587786259542,563.6697247706422,-38.53211009174312,17.889908256880734,,
1760477410.6431203,0,-0.83203125,0.12445068359375,0.1243896484375,9.419847328244275,-179.78625954198472,-46.908396946564885,728.0733944954129,-38.99082568807339,18.1651376146789,,
1760477410.6537998,0,-0.8319091796875,0.12445068359375,0.12445068359375,9.427480916030534,-148.51908396946564,-13.687022900763358,657.6146788990826,-38.25688073394495,17.79816513761468,,
1760477410.674956,0,-0.83172607421875,0.12445068359375,0.1243896484375,9.419847328244275,-97.70992366412214,-19.549618320610687,915.9633027522935,-38.62385321100918,17.61467889908257,,
1760477410.7068665,0,-0.83160400390625,0.12457275390625,0.12445068359375,9.435114503816791,-170.01526717557252,-39.09160305343512,634.1284403669725,-38.53211009174312,17.431192660550458,,
1760477410.717496,0,-0.8314208984375,0.1243896484375,0.12445068359375,9.419847328244275,-150.4732824427481,-33.229007633587784,868.9908256880734,-38.440366972477065,18.1651376146789,,
1760477410.7387493,0,-0.831298828125,0.12457275390625,0.12451171875,9.435114503816791,-125.06870229007632,-0.0076335877862595,728.0733944954129,-39.17431192660551,18.1651376146789,,
1760477410.749406,0,-0.83111572265625,0.12445068359375,0.12445068359375,9.427480916030534,-125.06870229007632,-9.778625954198471,751.559633027523,-38.440366972477065,17.889908256880734,,
1760477410.7707543,0,-0.83099365234375,0.12457275390625,0.1243896484375,9.419847328244275,-142.65648854961833,9.770992366412214,540.1834862385322,-38.440366972477065,17.79816513761468,,
1760477410.802673,0,-0.830810546875,0.12445068359375,0.12432861328125,9.412213740458014,-156.33587786259542,-17.595419847328245,328.8073394495413,-38.80733944954128,17.522935779816514,,
1760477410.8134563,0,-0.8306884765625,0.12451171875,0.12445068359375,9.427480916030534,-132.8854961832061,-43.0,610.6422018348624,-38.899082568807344,18.1651376146789,,
1760477410.8349185,0,-0.83050537109375,0.12445068359375,0.12445068359375,9.427480916030534,-158.29007633587787,0.0,516.6972477064221,-38.80733944954128,18.1651376146789,,
1760477410.8666377,0,-0.83038330078125,0.12457275390625,0.12451171875,9.427480916030534,-158.29007633587787,-5.870229007633588,399.2660550458716,-37.98165137614679,18.53211009174312,,
1760477410.8773403,0,-0.8302001953125,0.124267578125,0.12451171875,9.419847328244275,-134.83969465648855,-13.687022900763358,563.6697247706422,-38.62385321100918,17.61467889908257,,
1760477410.898602,0,-0.830078125,0.12451171875,0.12445068359375,9.419847328244275,-138.74809160305344,-50.81679389312977,587.1559633027523,-38.62385321100918,17.431192660550458,,
1760477410.9093492,0,-0.82989501953125,0.12457275390625,0.1243896484375,9.427480916030534,-138.74809160305344,-31.27480916030534,587.1559633027523,-38.34862385321101,17.889908256880734,,
1760477410.9308088,0,-0.82977294921875,0.12445068359375,0.12445068359375,9.435114503816791,-156.33587786259542,-62.54198473282442,657.6146788990826,-38.53211009174312,17.61467889908257,,
1760477410.9624517,0,-0.82958984375,0.12445068359375,0.12445068359375,9.412213740458014,-132.8854961832061,-56.6793893129771,258.34862385321105,-37.98165137614679,18.1651376146789,,
1760477410.973194,0,-0.8294677734375,0.12451171875,0.12445068359375,9.427480916030534,-138.74809160305344,-44.954198473282446,516.6972477064221,-38.440366972477065,17.706422018348626,,
1760477410.9947362,0,-0.82928466796875,0.12445068359375,0.1243896484375,9.412213740458014,-148.51908396946564,-72.31297709923665,140.91743119266056,-38.99082568807339,17.79816513761468,,
1760477411.026003,0,-0.82916259765625,0.12457275390625,0.1243896484375,9.427480916030534,-170.01526717557252,-56.6793893129771,751.559633027523,-38.1651376146789,17.61467889908257,,
1760477411.036395,0,-0.8289794921875,0.12451171875,0.12432861328125,9.419847328244275,-142.65648854961833,-3.916030534351145,775.045871559633,-37.98165137614679,17.706422018348626,,
1760477411.0571227,0,-0.828857421875,0.12451171875,0.1243896484375,9.427480916030534,-142.65648854961833,-50.81679389312977,634.1284403669725,-38.62385321100918,17.98165137614679,,
1760477411.0883818,0,-0.82867431640625,0.1246337890625,0.12445068359375,9.427480916030534,-158.29007633587787,-41.045801526717554,775.045871559633,-38.80733944954128,17.61467889908257,,
1760477411.0989745,0,-0.82855224609375,0.12445068359375,0.12445068359375,9.427480916030534,-146.5648854961832,-54.725190839694655,399.2660550458716,-39.26605504587156,18.256880733944957,,
1760477411.120001,0,-0.828369140625,0.12445068359375,0.1243896484375,9.412213740458014,-128.9770992366412,-39.09160305343512,822.0183486238533,-38.07339449541284,17.889908256880734,,
1760477411.130617,0,-0.8282470703125,0.1243896484375,0.1243896484375,9.435114503816791,-179.78625954198472,-39.09160305343512,751.559633027523,-38.34862385321101,18.34862385321101,,
1760477411.1517968,0,-0.82806396484375,0.12445068359375,0.12445068359375,9.435114503816791,-152.42748091603053,-21.50381679389313,563.6697247706422,-38.25688073394495,17.61467889908257,,
1760477411.162626,0,-0.82794189453125,0.1243896484375,0.12451171875,9.419847328244275,-111.38931297709924,-5.870229007633588,563.6697247706422,-38.899082568807344,17.431192660550458,,
1760477411.1838262,0,-0.8277587890625,0.12451171875,0.12451171875,9.419847328244275,-154.38167938931298,-33.229007633587784,775.045871559633,-38.440366972477065,18.34862385321101,,
1760477411.2153163,0,-0.82763671875,0.12445068359375,0.12445068359375,9.435114503816791,-127.02290076335878,-43.0,469.72477064220186,-39.08256880733945,17.61467889908257,,
1760477411.2469597,0,-0.82745361328125,0.1243896484375,0.12445068359375,9.419847328244275,-166.10687022900763,-21.50381679389313,587.1559633027523,-38.440366972477065,17.889908256880734,,
1760477411.2576685,0,-0.82733154296875,0.12445068359375,0.12445068359375,9.419847328244275,-164.15267175572518,-17.595419847328245,375.7798165137615,-38.440366972477065,18.440366972477065,,
1760477411.2789612,0,-0.8271484375,0.12451171875,0.12445068359375,9.412213740458014,-132.8854961832061,-27.366412213740457,516.6972477064221,-38.1651376146789,17.706422018348626,,
1760477411.289606,0,-0.8270263671875,0.12451171875,0.12445068359375,9.427480916030534,-160.24427480916032,-37.13740458015267,469.72477064220186,-38.440366972477065,17.522935779816514,,
1760477411.3109148,0,-0.82684326171875,0.12445068359375,0.12445068359375,9.427480916030534,-156.33587786259542,-29.3206106870229,728.0733944954129,-38.25688073394495,18.1651376146789,,
1760477411.3215992,0,-0.82672119140625,0.12445068359375,0.12451171875,9.404580152671755,-134.83969465648855,-21.50381679389313,117.43119266055048,-38.80733944954128,18.1651376146789,,
1760477411.3429956,0,-0.8265380859375,0.12445068359375,0.12445068359375,9.404580152671755,-156.33587786259542,-27.366412213740457,634.1284403669725,-38.62385321100918,17.98165137614679,,
1760477411.3643763,0,-0.826416015625,0.12451171875,0.1243896484375,9.435114503816791,-128.9770992366412,-27.366412213740457,657.6146788990826,-38.440366972477065,17.431192660550458,,
1760477411.3751214,0,-0.82623291015625,0.12451171875,0.1246337890625,9.412213740458014,-164.15267175572518,-68.40458015267176,563.6697247706422,-38.25688073394495,17.339449541284406,,
1760477411.3959277,0,-0.82611083984375,0.12445068359375,0.12445068359375,9.412213740458014,-142.65648854961833,-66.45038167938931,634.1284403669725,-38.899082568807344,17.889908256880734,,
1760477411.4270597,0,-0.825927734375,0.12457275390625,0.12451171875,9.419847328244275,-170.01526717557252,-9.778625954198471,493.2110091743119,-38.1651376146789,17.98165137614679,,
1760477411.437683,0,-0.8258056640625,0.12451171875,0.12451171875,9.427480916030534,-179.78625954198472,-31.27480916030534,164.40366972477065,-38.899082568807344,18.1651376146789,,
1760477411.45908,0,-0.82562255859375,0.1243896484375,0.12445068359375,9.435114503816791,-150.4732824427481,-56.6793893129771,681.1009174311927,-38.71559633027523,18.073394495412845,,
1760477411.469953,0,-0.82550048828125,0.12451171875,0.12451171875,9.404580152671755,-136.793893129771,-9.778625954198471,915.9633027522935,-38.62385321100918,17.889908256880734,,
1760477411.5018892,0,-0.8253173828125,0.12445068359375,0.1243896484375,9.412213740458014,-148.51908396946564,-19.549618320610687,610.6422018348624,-38.899082568807344,17.522935779816514,,
1760477411.5231793,0,-0.8251953125,0.12451171875,0.1246337890625,9.427480916030534,-91.8473282442748,-21.50381679389313,587.1559633027523,-38.34862385321101,17.24770642201835,,
1760477411.533883,0,-0.82501220703125,0.12451171875,0.1243896484375,9.412213740458014,-148.51908396946564,-15.641221374045802,751.559633027523,-38.34862385321101,17.522935779816514,,
1760477411.5553503,0,-0.82489013671875,0.12445068359375,0.12457275390625,9.427480916030534,-160.24427480916032,-43.0,399.2660550458716,-38.1651376146789,18.073394495412845,,
1760477411.586987,0,-0.82470703125,0.1243896484375,0.12445068359375,9.435114503816791,-127.02290076335878,-66.45038167938931,328.8073394495413,-38.71559633027523,17.522935779816514,,
1760477411.5975926,0,-0.8245849609375,0.12457275390625,0.1243896484375,9.435114503816791,-132.8854961832061,-60.58778625954199,728.0733944954129,-38.71559633027523,17.889908256880734,,
1760477411.6189108,0,-0.82440185546875,0.12451171875,0.12432861328125,9.435114503816791,-146.5648854961832,-48.86259541984733,375.7798165137615,-38.34862385321101,17.24770642201835,,
1760477411.650708,0,-0.82427978515625,0.12451171875,0.12457275390625,9.427480916030534,-136.793893129771,-41.045801526717554,211.37614678899084,-38.53211009174312,17.79816513761468,,
1760477411.6614263,0,-0.8240966796875,0.12445068359375,0.12432861328125,9.435114503816791,-144.61068702290078,-50.81679389312977,634.1284403669725,-38.62385321100918,17.98165137614679,,
1760477411.6826038,0,-0.823974609375,0.12445068359375,0.12432861328125,9.412213740458014,-170.01526717557252,-46.908396946564885,610.6422018348624,-38.62385321100918,18.623853211009177,,
1760477411.7143495,0,-0.82379150390625,0.12451171875,0.12451171875,9.435114503816791,-162.19847328244273,-46.908396946564885,939.4495412844036,-38.1651376146789,17.98165137614679,,
1760477411.7251587,0,-0.82366943359375,0.12445068359375,0.12445068359375,9.419847328244275,-191.5114503816794,-52.770992366412216,493.2110091743119,-38.62385321100918,17.98165137614679,,
1760477411.7359169,0,-0.823486328125,0.12451171875,0.12457275390625,9.427480916030534,-171.96946564885496,0.0,845.5045871559633,-37.98165137614679,17.706422018348626,,
1760477411.7467935,0,-0.8233642578125,0.1243896484375,0.1243896484375,9.412213740458014,-125.06870229007632,-23.45801526717557,375.7798165137615,-38.53211009174312,17.339449541284406,,
1760477411.7787874,0,-0.82318115234375,0.1243896484375,0.12445068359375,9.442748091603054,-144.61068702290078,-29.3206106870229,516.6972477064221,-38.53211009174312,18.1651376146789,,
1760477411.7894263,0,-0.82305908203125,0.1246337890625,0.12445068359375,9.435114503816791,-158.29007633587787,-41.045801526717554,305.3211009174312,-38.34862385321101,17.79816513761468,,
1760477411.8108733,0,-0.8228759765625,0.12445068359375,0.12445068359375,9.435114503816791,-148.51908396946564,-33.229007633587784,775.045871559633,-38.34862385321101,17.522935779816514,,
1760477411.8215714,0,-0.82275390625,0.1243896484375,0.12451171875,9.427480916030534,-150.4732824427481,-46.908396946564885,446.2385321100918,-38.53211009174312,17.98165137614679,,
1760477411.842971,0,-0.82257080078125,0.12451171875,0.1243896484375,9.427480916030534,-160.24427480916032,-33.229007633587784,634.1284403669725,-37.61467889908257,17.339449541284406,,
1760477411.874766,0,-0.82244873046875,0.12432861328125,0.12432861328125,9.419847328244275,-152.42748091603053,-54.725190839694655,775.045871559633,-38.80733944954128,17.706422018348626,,
1760477411.8854167,0,-0.822265625,0.12445068359375,0.12451171875,9.427480916030534,-142.65648854961833,-27.366412213740457,657.6146788990826,-38.440366972477065,17.61467889908257,,
1760477411.906734,0,-0.8221435546875,0.12457275390625,0.12451171875,9.442748091603054,-140.70229007633588,-29.3206106870229,399.2660550458716,-39.17431192660551,18.1651376146789,,
1760477411.940042,0,-0.82196044921875,0.1246337890625,0.124267578125,9.435114503816791,-148.51908396946564,-50.81679389312977,915.9633027522935,-38.62385321100918,17.522935779816514,,
1760477411.9504948,0,-0.82183837890625,0.12457275390625,0.124267578125,9.435114503816791,-127.02290076335878,-46.908396946564885,328.8073394495413,-38.99082568807339,18.073394495412845,,
1760477411.971176,0,-0.8216552734375,0.12451171875,0.12445068359375,9.427480916030534,-146.5648854961832,-62.54198473282442,610.6422018348624,-37.98165137614679,17.79816513761468,,
1760477411.9816654,0,-0.821533203125,0.12457275390625,0.12445068359375,9.419847328244275,-170.01526717557252,-62.54198473282442,634.1284403669725,-38.1651376146789,17.79816513761468,,
1760477412.0024085,0,-0.82135009765625,0.12451171875,0.1243896484375,9.419847328244275,-150.4732824427481,-48.86259541984733,540.1834862385322,-38.62385321100918,17.79816513761468,,
1760477412.0334144,0,-0.82122802734375,0.12445068359375,0.12445068359375,9.427480916030534,-152.42748091603053,-37.13740458015267,681.1009174311927,-38.53211009174312,17.98165137614679,,
1760477412.0439785,0,-0.821044921875,0.12445068359375,0.12445068359375,9.427480916030534,-121.16030534351144,-23.45801526717557,657.6146788990826,-38.62385321100918,17.706422018348626,,
1760477412.0649784,0,-0.8209228515625,0.12451171875,0.1246337890625,9.419847328244275,-171.96946564885496,-44.954198473282446,1056.8807339449545,-38.07339449541284,17.61467889908257,,
1760477412.075324,0,-0.82073974609375,0.1243896484375,0.12457275390625,9.419847328244275,-162.19847328244273,-60.58778625954199,305.3211009174312,-38.53211009174312,17.431192660550458,,
1760477412.0961783,0,-0.82061767578125,0.1246337890625,0.12457275390625,9.427480916030534,-134.83969465648855,-66.45038167938931,728.0733944954129,-38.440366972477065,17.98165137614679,,
1760477412.1281495,0,-0.8204345703125,0.12445068359375,0.12445068359375,9.412213740458014,-144.61068702290078,-48.86259541984733,751.559633027523,-38.34862385321101,17.61467889908257,,
1760477412.138856,0,-0.8203125,0.12451171875,0.12451171875,9.435114503816791,-132.8854961832061,-50.81679389312977,446.2385321100918,-38.440366972477065,17.706422018348626,,
1760477412.1602693,0,-0.82012939453125,0.12451171875,0.12420654296875,9.419847328244275,-162.19847328244273,-50.81679389312977,587.1559633027523,-38.1651376146789,17.889908256880734,,
1760477412.1919916,0,-0.82000732421875,0.12445068359375,0.12445068359375,9.427480916030534,-123.1145038167939,-31.27480916030534,563.6697247706422,-39.08256880733945,17.79816513761468,,
1760477412.2027268,0,-0.81982421875,0.12445068359375,0.1243896484375,9.419847328244275,-171.96946564885496,-66.45038167938931,728.0733944954129,-38.53211009174312,17.61467889908257,,
1760477412.224119,0,-0.8197021484375,0.12451171875,0.12445068359375,9.427480916030534,-148.51908396946564,-41.045801526717554,939.4495412844036,-38.07339449541284,17.98165137614679,,
1760477412.2349904,0,-0.81951904296875,0.12451171875,0.1243896484375,9.427480916030534,-146.5648854961832,-7.824427480916031,540.1834862385322,-38.71559633027523,17.706422018348626,,
1760477412.2571614,0,-0.81939697265625,0.12445068359375,0.1243896484375,9.419847328244275,-130.93129770992363,-27.366412213740457,516.6972477064221,-39.17431192660551,18.073394495412845,,
1760477412.2888727,0,-0.8192138671875,0.12451171875,0.12451171875,9.419847328244275,-138.74809160305344,-23.45801526717557,610.6422018348624,-38.440366972477065,17.431192660550458,,
1760477412.3001308,0,-0.819091796875,0.12451171875,0.1246337890625,9.427480916030534,-136.793893129771,-46.908396946564885,540.1834862385322,-37.98165137614679,18.1651376146789,,
1760477412.3214417,0,-0.81890869140625,0.1243896484375,0.12432861328125,9.419847328244275,-130.93129770992363,-52.770992366412216,657.6146788990826,-38.53211009174312,17.24770642201835,,
1760477412.3322058,0,-0.81878662109375,0.12445068359375,0.12445068359375,9.427480916030534,-140.70229007633588,-44.954198473282446,681.1009174311927,-38.440366972477065,17.706422018348626,,
1760477412.3534915,0,-0.818603515625,0.12451171875,0.1243896484375,9.412213740458014,-142.65648854961833,-37.13740458015267,610.6422018348624,-38.62385321100918,18.1651376146789,,
1760477412.3851247,0,-0.8184814453125,0.12445068359375,0.12451171875,9.404580152671755,-160.24427480916032,-58.63358778625954,352.2935779816514,-38.440366972477065,18.1651376146789,,
1760477412.3959875,0,-0.81829833984375,0.12451171875,0.1243896484375,9.419847328244275,-181.7404580152672,-54.725190839694655,610.6422018348624,-38.62385321100918,17.889908256880734,,
1760477412.4170628,0,-0.81817626953125,0.12451171875,0.12445068359375,9.404580152671755,-166.10687022900763,-7.824427480916031,751.559633027523,-38.440366972477065,17.79816513761468,,
1760477412.4487956,0,-0.8179931640625,0.12451171875,0.12451171875,9.412213740458014,-115.29770992366412,-33.229007633587784,704.5871559633028,-38.34862385321101,17.98165137614679,,
1760477412.4595568,0,-0.81787109375,0.12451171875,0.12445068359375,9.435114503816791,-162.19847328244273,-44.954198473282446,657.6146788990826,-38.71559633027523,17.889908256880734,,
1760477412.4808702,0,-0.81768798828125,0.12451171875,0.12451171875,9.419847328244275,-173.9236641221374,-37.13740458015267,493.2110091743119,-38.1651376146789,18.53211009174312,,
1760477412.491582,0,-0.81756591796875,0.12445068359375,0.12451171875,9.419847328244275,-160.24427480916032,-44.954198473282446,610.6422018348624,-39.26605504587156,18.1651376146789,,
1760477412.512947,0,-0.8173828125,0.12451171875,0.12445068359375,9.419847328244275,-152.42748091603053,-58.63358778625954,704.5871559633028,-38.71559633027523,17.79816513761468,,
1760477412.5443845,0,-0.8172607421875,0.12445068359375,0.12445068359375,9.427480916030534,-123.1145038167939,-44.954198473282446,728.0733944954129,-37.61467889908257,17.522935779816514,,
1760477412.5754693,0,-0.81707763671875,0.1243896484375,0.12451171875,9.412213740458014,-166.10687022900763,-33.229007633587784,422.7522935779817,-38.71559633027523,17.522935779816514,,
1760477412.5858457,0,-0.81695556640625,0.12457275390625,0.12445068359375,9.419847328244275,-132.8854961832061,-46.908396946564885,681.1009174311927,-38.440366972477065,17.79816513761468,,
1760477412.5965383,0,-0.8167724609375,0.12451171875,0.12451171875,9.427480916030534,-148.51908396946564,-37.13740458015267,704.5871559633028,-38.440366972477065,18.440366972477065,,
1760477412.607401,0,-0.816650390625,0.12445068359375,0.1243896484375,9.435114503816791,-144.61068702290078,-50.81679389312977,822.0183486238533,-38.80733944954128,18.1651376146789,,
1760477412.6385148,0,-0.81646728515625,0.12445068359375,0.1243896484375,9.419847328244275,-138.74809160305344,-37.13740458015267,798.5321100917431,-38.25688073394495,17.431192660550458,,
1760477412.6489315,0,-0.81634521484375,0.12445068359375,0.12445068359375,9.419847328244275,-171.96946564885496,-60.58778625954199,258.34862385321105,-38.53211009174312,17.522935779816514,,
1760477412.6696932,0,-0.816162109375,0.12445068359375,0.1243896484375,9.419847328244275,-164.15267175572518,-17.595419847328245,751.559633027523,-38.34862385321101,16.972477064220186,,
1760477412.700923,0,-0.8160400390625,0.12451171875,0.1243896484375,9.427480916030534,-144.61068702290078,-25.41221374045801,399.2660550458716,-38.1651376146789,17.61467889908257,,
1760477412.7113929,0,-0.81585693359375,0.12445068359375,0.12432861328125,9.419847328244275,-152.42748091603053,-39.09160305343512,469.72477064220186,-38.440366972477065,18.34862385321101,,
1760477412.7323923,0,-0.81573486328125,0.12451171875,0.1243896484375,9.419847328244275,-148.51908396946564,-31.27480916030534,939.4495412844036,-38.1651376146789,18.34862385321101,,
1760477412.743033,0,-0.8155517578125,0.12445068359375,0.1243896484375,9.412213740458014,-136.793893129771,-35.18320610687023,775.045871559633,-38.1651376146789,17.522935779816514,,
1760477412.7641656,0,-0.8154296875,0.12457275390625,0.12451171875,9.427480916030534,-107.48091603053436,-62.54198473282442,352.2935779816514,-39.17431192660551,17.522935779816514,,
1760477412.7959924,0,-0.81524658203125,0.12445068359375,0.1243896484375,9.442748091603054,-138.74809160305344,-48.86259541984733,728.0733944954129,-39.08256880733945,18.073394495412845,,
1760477412.806706,0,-0.81512451171875,0.12445068359375,0.1243896484375,9.404580152671755,-134.83969465648855,-60.58778625954199,375.7798165137615,-38.440366972477065,17.61467889908257,,
1760477412.8279405,0,-0.81494140625,0.12445068359375,0.12445068359375,9.450381679389311,-148.51908396946564,-21.50381679389313,1080.3669724770643,-38.71559633027523,17.522935779816514,,
1760477412.8595374,0,-0.8148193359375,0.12445068359375,0.12432861328125,9.427480916030534,-136.793893129771,-31.27480916030534,657.6146788990826,-38.07339449541284,18.440366972477065,,
1760477412.8702617,0,-0.81463623046875,0.12451171875,0.12432861328125,9.427480916030534,-154.38167938931298,-29.3206106870229,634.1284403669725,-38.440366972477065,17.431192660550458,,
1760477412.8916705,0,-0.81451416015625,0.12451171875,0.1243896484375,9.427480916030534,-154.38167938931298,-35.18320610687023,375.7798165137615,-38.25688073394495,18.073394495412845,,
1760477412.9024532,0,-0.8143310546875,0.12445068359375,0.1243896484375,9.412213740458014,-146.5648854961832,-31.27480916030534,775.045871559633,-38.34862385321101,18.1651376146789,,
1760477412.9239285,0,-0.814208984375,0.12451171875,0.12445068359375,9.412213740458014,-183.6946564885496,-39.09160305343512,634.1284403669725,-38.07339449541284,17.24770642201835,,
1760477412.9554815,0,-0.81402587890625,0.12451171875,0.1243896484375,9.435114503816791,-130.93129770992363,-70.3587786259542,845.5045871559633,-37.88990825688073,17.24770642201835,,
