timestamp,packet_id,accel_x,accel_y,accel_z,gyro_x,gyro_y,gyro_z,mag_x,mag_y,mag_z,battery,temperature
1760476190.158558,0,1.6326904296875,0.124267578125,0.125244140625,9.419847328244275,-179.78625954198472,-58.63358778625954,634.1284403669725,-28.899082568807337,-17.889908256880734,,
1760476190.1908538,0,1.63287353515625,0.12420654296875,0.1253662109375,9.419847328244275,-171.96946564885496,-13.687022900763358,493.2110091743119,-28.899082568807337,-18.34862385321101,,
1760476190.2018232,0,1.63299560546875,0.1241455078125,0.1253662109375,9.419847328244275,-140.70229007633588,-15.641221374045802,728.0733944954129,-28.807339449541285,-17.522935779816514,,
1760476190.2225878,0,1.6331787109375,0.124267578125,0.12530517578125,9.419847328244275,-154.38167938931298,-27.366412213740457,728.0733944954129,-29.08256880733945,-17.61467889908257,,
1760476190.2338166,0,1.63330078125,0.12432861328125,0.1253662109375,9.404580152671755,-154.38167938931298,-62.54198473282442,892.4770642201836,-28.807339449541285,-17.155963302752294,,
1760476190.2570107,0,1.63348388671875,0.124267578125,0.125244140625,9.412213740458014,-166.10687022900763,-31.27480916030534,610.6422018348624,-28.440366972477065,-17.706422018348626,,
1760476190.2905865,0,1.63360595703125,0.12420654296875,0.1253662109375,9.435114503816791,-160.24427480916032,-41.045801526717554,258.34862385321105,-28.71559633027523,-18.89908256880734,,
1760476190.3018105,0,1.6337890625,0.12420654296875,0.12530517578125,9.419847328244275,-134.83969465648855,-15.641221374045802,375.7798165137615,-28.440366972477065,-17.706422018348626,,
1760476190.3226843,0,1.6339111328125,0.124267578125,0.1253662109375,9.412213740458014,-136.793893129771,-33.229007633587784,657.6146788990826,-28.623853211009177,-17.522935779816514,,
1760476190.3545933,0,1.63409423828125,0.124267578125,0.1253662109375,9.427480916030534,-121.16030534351144,-50.81679389312977,610.6422018348624,-28.440366972477065,-17.431192660550458,,
1760476190.3660507,0,1.63421630859375,0.1241455078125,0.1253662109375,9.427480916030534,-177.8320610687023,-54.725190839694655,516.6972477064221,-28.623853211009177,-18.1651376146789,,
1760476190.3869567,0,1.6343994140625,0.124267578125,0.1253662109375,9.412213740458014,-160.24427480916032,-37.13740458015267,868.9908256880734,-28.34862385321101,-18.1651376146789,,
1760476190.4207864,0,1.634521484375,0.124267578125,0.125244140625,9.427480916030534,-168.06106870229007,-44.954198473282446,469.72477064220186,-28.623853211009177,-18.34862385321101,,
1760476190.4313807,0,1.63470458984375,0.124267578125,0.12530517578125,9.419847328244275,-117.25190839694656,-9.778625954198471,446.2385321100918,-28.807339449541285,-17.889908256880734,,
1760476190.444448,0,1.63482666015625,0.124267578125,0.12530517578125,9.404580152671755,-130.93129770992363,-19.549618320610687,540.1834862385322,-28.623853211009177,-17.431192660550458,,
1760476190.4558485,0,1.635009765625,0.1241455078125,0.125244140625,9.419847328244275,-148.51908396946564,-13.687022900763358,868.9908256880734,-29.08256880733945,-17.889908256880734,,
1760476190.476736,0,1.6351318359375,0.124267578125,0.12530517578125,9.419847328244275,-158.29007633587787,-17.595419847328245,469.72477064220186,-29.26605504587156,-17.79816513761468,,
1760476190.4878314,0,1.63531494140625,0.12432861328125,0.12530517578125,9.427480916030534,-144.61068702290078,-56.6793893129771,587.1559633027523,-28.440366972477065,-18.623853211009177,,
1760476190.5089123,0,1.63543701171875,0.12420654296875,0.12530517578125,9.427480916030534,-150.4732824427481,-35.18320610687023,211.37614678899084,-28.34862385321101,-17.61467889908257,,
1760476190.5418975,0,1.6356201171875,0.124267578125,0.1253662109375,9.427480916030534,-207.1450381679389,-39.09160305343512,305.3211009174312,-28.440366972477065,-17.79816513761468,,
1760476190.552384,0,1.6357421875,0.124267578125,0.125244140625,9.404580152671755,-152.42748091603053,-41.045801526717554,704.5871559633028,-28.34862385321101,-17.889908256880734,,
1760476190.5749705,0,1.63592529296875,0.124267578125,0.12542724609375,9.419847328244275,-177.8320610687023,-43.0,281.8348623853211,-28.25688073394496,-17.79816513761468,,
1760476190.6061492,0,1.63604736328125,0.12420654296875,0.12542724609375,9.404580152671755,-158.29007633587787,-31.27480916030534,868.9908256880734,-27.79816513761468,-17.79816513761468,,
1760476190.6166785,0,1.63623046875,0.124267578125,0.12542724609375,9.419847328244275,-162.19847328244273,-35.18320610687023,587.1559633027523,-27.79816513761468,-18.256880733944957,,
1760476190.6375878,0,1.6363525390625,0.124267578125,0.12518310546875,9.396946564885496,-146.5648854961832,-15.641221374045802,845.5045871559633,-28.71559633027523,-17.889908256880734,,
1760476190.648051,0,1.63653564453125,0.12420654296875,0.1253662109375,9.412213740458014,-166.10687022900763,-46.908396946564885,211.37614678899084,-28.440366972477065,-17.431192660550458,,
1760476190.669066,0,1.63665771484375,0.124267578125,0.125244140625,9.427480916030534,-156.33587786259542,-23.45801526717557,657.6146788990826,-28.71559633027523,-17.61467889908257,,
1760476190.6899288,0,1.6368408203125,0.124267578125,0.12542724609375,9.419847328244275,-173.9236641221374,-9.778625954198471,469.72477064220186,-28.165137614678898,-17.98165137614679,,
1760476190.7005048,0,1.636962890625,0.124267578125,0.1253662109375,9.427480916030534,-156.33587786259542,-41.045801526717554,775.045871559633,-28.165137614678898,-17.98165137614679,,
1760476190.7323754,0,1.63714599609375,0.12408447265625,0.12530517578125,9.419847328244275,-160.24427480916032,-54.725190839694655,446.2385321100918,-28.073394495412845,-18.073394495412845,,
1760476190.7537217,0,1.63726806640625,0.124267578125,0.125244140625,9.427480916030534,-130.93129770992363,-31.27480916030534,540.1834862385322,-28.440366972477065,-17.889908256880734,,
1760476190.7645593,0,1.637451171875,0.124267578125,0.1253662109375,9.435114503816791,-128.9770992366412,-31.27480916030534,728.0733944954129,-28.073394495412845,-17.706422018348626,,
1760476190.7860146,0,1.6375732421875,0.124267578125,0.12530517578125,9.435114503816791,-148.51908396946564,-13.687022900763358,681.1009174311927,-29.08256880733945,-17.06422018348624,,
1760476190.7967606,0,1.63775634765625,0.1241455078125,0.12530517578125,9.419847328244275,-138.74809160305344,-27.366412213740457,751.559633027523,-28.71559633027523,-17.706422018348626,,
1760476190.8180726,0,1.63787841796875,0.12432861328125,0.125244140625,9.412213740458014,-154.38167938931298,-21.50381679389313,868.9908256880734,-28.25688073394496,-17.889908256880734,,
1760476190.8499887,0,1.6380615234375,0.124267578125,0.1253662109375,9.419847328244275,-154.38167938931298,-41.045801526717554,728.0733944954129,-28.073394495412845,-17.98165137614679,,
1760476190.8607843,0,1.63818359375,0.124267578125,0.1253662109375,9.435114503816791,-132.8854961832061,-33.229007633587784,704.5871559633028,-28.073394495412845,-17.98165137614679,,
1760476190.882153,0,1.63836669921875,0.124267578125,0.1253662109375,9.419847328244275,-144.61068702290078,-54.725190839694655,704.5871559633028,-29.08256880733945,-18.1651376146789,,
1760476190.913633,0,1.63848876953125,0.12432861328125,0.125244140625,9.435114503816791,-150.4732824427481,-31.27480916030534,634.1284403669725,-28.34862385321101,-17.431192660550458,,
1760476190.924413,0,1.638671875,0.12420654296875,0.125244140625,9.435114503816791,-140.70229007633588,-35.18320610687023,798.5321100917431,-28.53211009174312,-17.61467889908257,,
1760476190.9458485,0,1.6387939453125,0.124267578125,0.125244140625,9.404580152671755,-140.70229007633588,0.0,845.5045871559633,-29.08256880733945,-18.34862385321101,,
1760476190.977827,0,1.63897705078125,0.12432861328125,0.125244140625,9.419847328244275,-171.96946564885496,-54.725190839694655,939.4495412844036,-28.440366972477065,-17.98165137614679,,
1760476190.9884648,0,1.63909912109375,0.124267578125,0.1253662109375,9.427480916030534,-136.793893129771,-33.229007633587784,469.72477064220186,-28.440366972477065,-17.79816513761468,,
1760476191.0098248,0,1.6392822265625,0.124267578125,0.12542724609375,9.427480916030534,-140.70229007633588,-25.41221374045801,868.9908256880734,-28.25688073394496,-17.98165137614679,,
1760476191.0418055,0,1.639404296875,0.12420654296875,0.12530517578125,9.435114503816791,-154.38167938931298,-17.595419847328245,775.045871559633,-29.08256880733945,-18.073394495412845,,
1760476191.0525937,0,1.63958740234375,0.1241455078125,0.12530517578125,9.419847328244275,-154.38167938931298,-29.3206106870229,610.6422018348624,-28.623853211009177,-17.98165137614679,,
1760476191.0739484,0,1.63970947265625,0.124267578125,0.12530517578125,9.412213740458014,-132.8854961832061,-50.81679389312977,422.7522935779817,-28.440366972477065,-18.1651376146789,,
1760476191.084777,0,1.639892578125,0.124267578125,0.12530517578125,9.435114503816791,-140.70229007633588,-31.27480916030534,516.6972477064221,-28.623853211009177,-18.1651376146789,,
1760476191.1061084,0,1.6400146484375,0.12432861328125,0.12530517578125,9.427480916030534,-144.61068702290078,-62.54198473282442,915.9633027522935,-28.71559633027523,-17.431192660550458,,
1760476191.1168935,0,1.64019775390625,0.12432861328125,0.125244140625,9.412213740458014,-136.793893129771,-25.41221374045801,93.94495412844036,-28.25688073394496,-17.98165137614679,,
1760476191.1382551,0,1.64031982421875,0.124267578125,0.1253662109375,9.419847328244275,-136.793893129771,-39.09160305343512,657.6146788990826,-28.25688073394496,-17.431192660550458,,
1760476191.1701107,0,1.6405029296875,0.1241455078125,0.125244140625,9.427480916030534,-179.78625954198472,-50.81679389312977,563.6697247706422,-28.440366972477065,-18.1651376146789,,
1760476191.1808877,0,1.640625,0.124267578125,0.12548828125,9.412213740458014,-175.87786259541986,-39.09160305343512,775.045871559633,-28.34862385321101,-17.706422018348626,,
1760476191.2021208,0,1.64080810546875,0.1241455078125,0.12530517578125,9.435114503816791,-189.55725190839692,-44.954198473282446,728.0733944954129,-28.53211009174312,-18.623853211009177,,
1760476191.2129154,0,1.64093017578125,0.124267578125,0.125244140625,9.396946564885496,-105.52671755725191,-58.63358778625954,446.2385321100918,-28.25688073394496,-17.24770642201835,,
1760476191.234295,0,1.64111328125,0.124267578125,0.1253662109375,9.404580152671755,-199.32824427480915,-52.770992366412216,704.5871559633028,-28.623853211009177,-17.79816513761468,,
1760476191.2662132,0,1.6412353515625,0.12420654296875,0.12530517578125,9.419847328244275,-154.38167938931298,-7.824427480916031,493.2110091743119,-28.440366972477065,-17.155963302752294,,
1760476191.276976,0,1.64141845703125,0.12420654296875,0.1253662109375,9.404580152671755,-140.70229007633588,3.908396946564885,681.1009174311927,-28.53211009174312,-17.61467889908257,,
1760476191.298453,0,1.64154052734375,0.124267578125,0.12530517578125,9.404580152671755,-168.06106870229007,-39.09160305343512,845.5045871559633,-28.34862385321101,-17.79816513761468,,
1760476191.3302798,0,1.6417236328125,0.124267578125,0.1253662109375,9.419847328244275,-152.42748091603053,-58.63358778625954,516.6972477064221,-28.25688073394496,-17.61467889908257,,
1760476191.3409617,0,1.641845703125,0.1241455078125,0.125244140625,9.412213740458014,-140.70229007633588,-41.045801526717554,422.7522935779817,-28.623853211009177,-17.889908256880734,,
1760476191.3518667,0,1.64202880859375,0.124267578125,0.12530517578125,9.427480916030534,-166.10687022900763,-52.770992366412216,962.9357798165138,-29.08256880733945,-17.79816513761468,,
1760476191.3837738,0,1.64215087890625,0.124267578125,0.12530517578125,9.427480916030534,-160.24427480916032,-48.86259541984733,634.1284403669725,-28.53211009174312,-17.24770642201835,,
1760476191.394546,0,1.642333984375,0.1243896484375,0.12530517578125,9.427480916030534,-168.06106870229007,-66.45038167938931,610.6422018348624,-28.623853211009177,-17.522935779816514,,
1760476191.4160025,0,1.6424560546875,0.12432861328125,0.1253662109375,9.435114503816791,-152.42748091603053,-29.3206106870229,587.1559633027523,-28.440366972477065,-17.889908256880734,,
1760476191.4267764,0,1.64263916015625,0.1241455078125,0.12530517578125,9.419847328244275,-130.93129770992363,-31.27480916030534,587.1559633027523,-28.073394495412845,-17.61467889908257,,
1760476191.4481263,0,1.64276123046875,0.12432861328125,0.12530517578125,9.442748091603054,-144.61068702290078,-82.08396946564885,751.559633027523,-28.25688073394496,-17.61467889908257,,
1760476191.4799995,0,1.6429443359375,0.124267578125,0.125244140625,9.435114503816791,-138.74809160305344,-27.366412213740457,822.0183486238533,-28.073394495412845,-17.61467889908257,,
1760476191.4906125,0,1.64306640625,0.124267578125,0.1253662109375,9.419847328244275,-144.61068702290078,-17.595419847328245,798.5321100917431,-28.34862385321101,-17.522935779816514,,
1760476191.5115774,0,1.64324951171875,0.12420654296875,0.1253662109375,9.427480916030534,-156.33587786259542,-58.63358778625954,775.045871559633,-29.357798165137616,-17.889908256880734,,
1760476191.5223918,0,1.64337158203125,0.1241455078125,0.12542724609375,9.396946564885496,-154.38167938931298,-48.86259541984733,798.5321100917431,-27.889908256880737,-17.706422018348626,,
1760476191.5438862,0,1.6435546875,0.124267578125,0.12542724609375,9.412213740458014,-130.93129770992363,-50.81679389312977,634.1284403669725,-28.25688073394496,-18.53211009174312,,
1760476191.575637,0,1.6436767578125,0.12420654296875,0.12530517578125,9.419847328244275,-164.15267175572518,-52.770992366412216,610.6422018348624,-28.71559633027523,-18.1651376146789,,
1760476191.606733,0,1.64385986328125,0.12432861328125,0.12530517578125,9.419847328244275,-138.74809160305344,-39.09160305343512,258.34862385321105,-28.073394495412845,-17.24770642201835,,
1760476191.6171987,0,1.64398193359375,0.124267578125,0.1253662109375,9.435114503816791,-142.65648854961833,-35.18320610687023,751.559633027523,-28.9908256880734,-17.61467889908257,,
1760476191.6382754,0,1.6441650390625,0.124267578125,0.1253662109375,9.412213740458014,-142.65648854961833,-33.229007633587784,328.8073394495413,-28.623853211009177,-18.34862385321101,,
1760476191.670071,0,1.644287109375,0.12432861328125,0.1253662109375,9.419847328244275,-146.5648854961832,-1.9618320610687023,422.7522935779817,-27.981651376146782,-17.98165137614679,,
1760476191.6808517,0,1.64447021484375,0.12420654296875,0.125244140625,9.412213740458014,-150.4732824427481,-41.045801526717554,681.1009174311927,-29.08256880733945,-17.24770642201835,,
1760476191.7024035,0,1.64459228515625,0.12408447265625,0.12530517578125,9.412213740458014,-140.70229007633588,-52.770992366412216,775.045871559633,-28.25688073394496,-17.522935779816514,,
1760476191.7131913,0,1.644775390625,0.12432861328125,0.12542724609375,9.419847328244275,-152.42748091603053,-74.26717557251908,657.6146788990826,-28.25688073394496,-17.522935779816514,,
1760476191.7345874,0,1.6448974609375,0.12420654296875,0.125244140625,9.419847328244275,-148.51908396946564,-19.549618320610687,587.1559633027523,-28.25688073394496,-17.522935779816514,,
1760476191.7454188,0,1.64508056640625,0.1243896484375,0.12530517578125,9.412213740458014,-181.7404580152672,-37.13740458015267,751.559633027523,-27.889908256880737,-17.61467889908257,,
1760476191.756256,0,1.64520263671875,0.12420654296875,0.1253662109375,9.419847328244275,-160.24427480916032,-31.27480916030534,751.559633027523,-28.25688073394496,-17.61467889908257,,
1760476191.7881725,0,1.6453857421875,0.12432861328125,0.1253662109375,9.427480916030534,-152.42748091603053,-50.81679389312977,352.2935779816514,-27.889908256880737,-17.889908256880734,,
1760476191.7989998,0,1.6455078125,0.12420654296875,0.12548828125,9.435114503816791,-201.2824427480916,-31.27480916030534,892.4770642201836,-28.807339449541285,-17.61467889908257,,
1760476191.8203316,0,1.64569091796875,0.124267578125,0.12530517578125,9.404580152671755,-107.48091603053436,-23.45801526717557,634.1284403669725,-28.165137614678898,-17.98165137614679,,
1760476191.8312402,0,1.64581298828125,0.12420654296875,0.1253662109375,9.419847328244275,-160.24427480916032,-23.45801526717557,375.7798165137615,-28.623853211009177,-17.431192660550458,,
1760476191.8632226,0,1.64599609375,0.124267578125,0.125244140625,9.419847328244275,-152.42748091603053,-56.6793893129771,634.1284403669725,-28.25688073394496,-17.706422018348626,,
1760476191.884501,0,1.6461181640625,0.12420654296875,0.1253662109375,9.412213740458014,-136.793893129771,-31.27480916030534,657.6146788990826,-28.34862385321101,-18.073394495412845,,
1760476191.895295,0,1.64630126953125,0.12420654296875,0.12530517578125,9.442748091603054,-150.4732824427481,-25.41221374045801,704.5871559633028,-28.53211009174312,-17.522935779816514,,
1760476191.916629,0,1.64642333984375,0.12420654296875,0.1253662109375,9.427480916030534,-115.29770992366412,-39.09160305343512,634.1284403669725,-28.440366972477065,-17.98165137614679,,
1760476191.9485323,0,1.6466064453125,0.124267578125,0.125244140625,9.427480916030534,-140.70229007633588,-68.40458015267176,634.1284403669725,-28.623853211009177,-17.79816513761468,,
1760476191.9593494,0,1.646728515625,0.1241455078125,0.1253662109375,9.427480916030534,-160.24427480916032,-60.58778625954199,328.8073394495413,-28.440366972477065,-17.431192660550458,,
1760476191.980805,0,1.64691162109375,0.12420654296875,0.12530517578125,9.412213740458014,-140.70229007633588,-0.0076335877862595,657.6146788990826,-28.71559633027523,-17.706422018348626,,
1760476192.0126932,0,1.64703369140625,0.1241455078125,0.125244140625,9.412213740458014,-142.65648854961833,-37.13740458015267,305.3211009174312,-28.71559633027523,-18.1651376146789,,
1760476192.0234342,0,1.647216796875,0.124267578125,0.1253662109375,9.419847328244275,-136.793893129771,-5.870229007633588,798.5321100917431,-28.53211009174312,-17.889908256880734,,
1760476192.0446906,0,1.6473388671875,0.12432861328125,0.1253662109375,9.412213740458014,-164.15267175572518,-27.366412213740457,751.559633027523,-28.53211009174312,-17.61467889908257,,
1760476192.0552778,0,1.64752197265625,0.12420654296875,0.12542724609375,9.435114503816791,-170.01526717557252,-64.49618320610686,516.6972477064221,-29.08256880733945,-17.98165137614679,,
1760476192.0764682,0,1.64764404296875,0.12420654296875,0.1253662109375,9.419847328244275,-148.51908396946564,-54.725190839694655,540.1834862385322,-29.174311926605505,-17.24770642201835,,
1760476192.0873463,0,1.6478271484375,0.1241455078125,0.1253662109375,9.427480916030534,-132.8854961832061,-17.595419847328245,845.5045871559633,-27.889908256880737,-17.98165137614679,,
1760476192.108703,0,1.64794921875,0.124267578125,0.12530517578125,9.419847328244275,-173.9236641221374,-21.50381679389313,681.1009174311927,-28.34862385321101,-17.339449541284406,,
1760476192.1404955,0,1.64813232421875,0.124267578125,0.1253662109375,9.435114503816791,-95.7557251908397,-43.0,845.5045871559633,-28.25688073394496,-17.98165137614679,,
1760476192.1513083,0,1.64825439453125,0.124267578125,0.1253662109375,9.404580152671755,-158.29007633587787,-23.45801526717557,822.0183486238533,-28.623853211009177,-17.431192660550458,,
1760476192.172814,0,1.6484375,0.12420654296875,0.12530517578125,9.427480916030534,-130.93129770992363,-39.09160305343512,563.6697247706422,-28.71559633027523,-17.61467889908257,,
1760476192.2041674,0,1.6485595703125,0.12420654296875,0.1253662109375,9.442748091603054,-156.33587786259542,-80.12977099236642,681.1009174311927,-28.71559633027523,-17.706422018348626,,
1760476192.214902,0,1.64874267578125,0.124267578125,0.12530517578125,9.419847328244275,-134.83969465648855,-21.50381679389313,634.1284403669725,-27.981651376146782,-17.706422018348626,,
1760476192.2363052,0,1.64886474609375,0.124267578125,0.12530517578125,9.419847328244275,-144.61068702290078,-3.916030534351145,798.5321100917431,-27.981651376146782,-18.073394495412845,,
1760476192.2470503,0,1.6490478515625,0.12420654296875,0.1253662109375,9.396946564885496,-175.87786259541986,-44.954198473282446,939.4495412844036,-28.165137614678898,-18.623853211009177,,
1760476192.2684717,0,1.649169921875,0.12420654296875,0.12548828125,9.412213740458014,-162.19847328244273,-25.41221374045801,775.045871559633,-28.899082568807337,-17.889908256880734,,
1760476192.30042,0,1.64935302734375,0.124267578125,0.1253662109375,9.427480916030534,-148.51908396946564,-15.641221374045802,446.2385321100918,-28.899082568807337,-17.706422018348626,,
1760476192.3112533,0,1.64947509765625,0.124267578125,0.12530517578125,9.435114503816791,-136.793893129771,-17.595419847328245,446.2385321100918,-28.53211009174312,-17.79816513761468,,
1760476192.332622,0,1.649658203125,0.12420654296875,0.12548828125,9.419847328244275,-138.74809160305344,-46.908396946564885,610.6422018348624,-28.440366972477065,-17.431192660550458,,
1760476192.3645935,0,1.6497802734375,0.12432861328125,0.12530517578125,9.412213740458014,-177.8320610687023,-27.366412213740457,751.559633027523,-28.623853211009177,-17.889908256880734,,
1760476192.3754458,0,1.64996337890625,0.124267578125,0.12530517578125,9.404580152671755,-160.24427480916032,-19.549618320610687,657.6146788990826,-28.34862385321101,-17.98165137614679,,
1760476192.3968656,0,1.65008544921875,0.124267578125,0.12530517578125,9.404580152671755,-164.15267175572518,-21.50381679389313,516.6972477064221,-28.899082568807337,-18.256880733944957,,
1760476192.4076135,0,1.6502685546875,0.12432861328125,0.12530517578125,9.412213740458014,-166.10687022900763,-76.22137404580153,563.6697247706422,-28.71559633027523,-17.61467889908257,,
1760476192.418469,0,1.650390625,0.12420654296875,0.12542724609375,9.427480916030534,-162.19847328244273,-31.27480916030534,822.0183486238533,-28.440366972477065,-17.889908256880734,,
1760476192.4502325,0,1.65057373046875,0.12432861328125,0.1253662109375,9.419847328244275,-132.8854961832061,-19.549618320610687,610.6422018348624,-28.9908256880734,-17.98165137614679,,
1760476192.4610045,0,1.65069580078125,0.124267578125,0.12530517578125,9.412213740458014,-158.29007633587787,-35.18320610687023,469.72477064220186,-27.614678899082566,-17.79816513761468,,
1760476192.4824317,0,1.65087890625,0.124267578125,0.1253662109375,9.419847328244275,-170.01526717557252,-50.81679389312977,728.0733944954129,-28.53211009174312,-18.1651376146789,,
1760476192.514298,0,1.6510009765625,0.124267578125,0.12518310546875,9.412213740458014,-132.8854961832061,-43.0,610.6422018348624,-28.25688073394496,-17.61467889908257,,
1760476192.5251305,0,1.65118408203125,0.124267578125,0.125244140625,9.412213740458014,-142.65648854961833,-64.49618320610686,915.9633027522935,-28.71559633027523,-17.61467889908257,,
1760476192.5465386,0,1.65130615234375,0.12420654296875,0.1253662109375,9.419847328244275,-130.93129770992363,-31.27480916030534,587.1559633027523,-28.25688073394496,-17.431192660550458,,
1760476192.578412,0,1.6514892578125,0.12432861328125,0.12542724609375,9.427480916030534,-148.51908396946564,-11.732824427480915,1103.8532110091744,-28.807339449541285,-18.1651376146789,,
1760476192.589223,0,1.651611328125,0.12420654296875,0.1253662109375,9.419847328244275,-164.15267175572518,-15.641221374045802,399.2660550458716,-28.34862385321101,-18.34862385321101,,
1760476192.6106207,0,1.65179443359375,0.12432861328125,0.12530517578125,9.419847328244275,-150.4732824427481,-44.954198473282446,164.40366972477065,-28.073394495412845,-17.889908256880734,,
1760476192.6424809,0,1.65191650390625,0.124267578125,0.12542724609375,9.427480916030534,-142.65648854961833,-60.58778625954199,775.045871559633,-28.25688073394496,-17.79816513761468,,
1760476192.6532767,0,1.652099609375,0.12420654296875,0.1253662109375,9.435114503816791,-156.33587786259542,-37.13740458015267,540.1834862385322,-29.44954128440367,-17.339449541284406,,
1760476192.6745274,0,1.6522216796875,0.1243896484375,0.12530517578125,9.419847328244275,-173.9236641221374,-11.732824427480915,281.8348623853211,-28.71559633027523,-17.889908256880734,,
1760476192.685229,0,1.65240478515625,0.12420654296875,0.12548828125,9.427480916030534,-136.793893129771,-17.595419847328245,563.6697247706422,-28.165137614678898,-17.889908256880734,,
1760476192.7065058,0,1.65252685546875,0.12420654296875,0.12530517578125,9.427480916030534,-154.38167938931298,-27.366412213740457,822.0183486238533,-28.165137614678898,-17.98165137614679,,
1760476192.7172797,0,1.6527099609375,0.124267578125,0.125244140625,9.435114503816791,-154.38167938931298,-41.045801526717554,728.0733944954129,-29.174311926605505,-17.98165137614679,,
1760476192.7282462,0,1.65283203125,0.12420654296875,0.1253662109375,9.419847328244275,-160.24427480916032,-44.954198473282446,704.5871559633028,-28.165137614678898,-17.79816513761468,,
1760476192.760102,0,1.65301513671875,0.124267578125,0.12542724609375,9.435114503816791,-134.83969465648855,-50.81679389312977,751.559633027523,-28.899082568807337,-17.522935779816514,,
1760476192.7709918,0,1.65313720703125,0.124267578125,0.125244140625,9.435114503816791,-170.01526717557252,-41.045801526717554,587.1559633027523,-28.165137614678898,-17.06422018348624,,
1760476192.8029144,0,1.6533203125,0.12432861328125,0.1253662109375,9.435114503816791,-173.9236641221374,-31.27480916030534,657.6146788990826,-28.34862385321101,-17.431192660550458,,
1760476192.8348792,0,1.6534423828125,0.12420654296875,0.125244140625,9.404580152671755,-156.33587786259542,-46.908396946564885,610.6422018348624,-28.623853211009177,-17.98165137614679,,
1760476192.845683,0,1.65362548828125,0.124267578125,0.1253662109375,9.419847328244275,-183.6946564885496,-11.732824427480915,587.1559633027523,-28.34862385321101,-17.98165137614679,,
1760476192.8670712,0,1.65374755859375,0.12420654296875,0.125244140625,9.412213740458014,-127.02290076335878,-35.18320610687023,328.8073394495413,-28.807339449541285,-17.431192660550458,,
1760476192.8778698,0,1.6539306640625,0.12420654296875,0.12530517578125,9.427480916030534,-152.42748091603053,-9.778625954198471,751.559633027523,-28.165137614678898,-18.34862385321101,,
1760476192.899305,0,1.654052734375,0.124267578125,0.12548828125,9.427480916030534,-134.83969465648855,-17.595419847328245,892.4770642201836,-28.71559633027523,-17.79816513761468,,
1760476192.9205923,0,1.65423583984375,0.12432861328125,0.12542724609375,9.435114503816791,-144.61068702290078,-56.6793893129771,516.6972477064221,-28.623853211009177,-17.706422018348626,,
1760476192.931397,0,1.65435791015625,0.12420654296875,0.125244140625,9.435114503816791,-140.70229007633588,-25.41221374045801,446.2385321100918,-28.25688073394496,-17.79816513761468,,
1760476192.952823,0,1.654541015625,0.12408447265625,0.12530517578125,9.412213740458014,-156.33587786259542,-9.778625954198471,516.6972477064221,-28.807339449541285,-17.706422018348626,,
1760476192.9636903,0,1.6546630859375,0.12420654296875,0.125244140625,9.412213740458014,-148.51908396946564,-23.45801526717557,587.1559633027523,-28.71559633027523,-18.073394495412845,,
1760476192.9954724,0,1.65484619140625,0.124267578125,0.1253662109375,9.427480916030534,-154.38167938931298,-27.366412213740457,798.5321100917431,-28.25688073394496,-17.79816513761468,,
1760476193.0273604,0,1.65496826171875,0.12420654296875,0.125244140625,9.412213740458014,-160.24427480916032,-37.13740458015267,728.0733944954129,-29.08256880733945,-17.522935779816514,,
1760476193.0381558,0,1.6551513671875,0.124267578125,0.12530517578125,9.442748091603054,-158.29007633587787,-29.3206106870229,399.2660550458716,-28.807339449541285,-17.889908256880734,,
1760476193.0591855,0,1.6552734375,0.124267578125,0.1253662109375,9.412213740458014,-140.70229007633588,-37.13740458015267,516.6972477064221,-28.53211009174312,-17.98165137614679,,
1760476193.069812,0,1.65545654296875,0.124267578125,0.12542724609375,9.404580152671755,-146.5648854961832,-29.3206106870229,845.5045871559633,-28.165137614678898,-17.61467889908257,,
1760476193.091185,0,1.65557861328125,0.12432861328125,0.12542724609375,9.419847328244275,-156.33587786259542,-54.725190839694655,563.6697247706422,-28.899082568807337,-17.98165137614679,,
1760476193.123056,0,1.65576171875,0.124267578125,0.12530517578125,9.427480916030534,-166.10687022900763,-58.63358778625954,422.7522935779817,-28.623853211009177,-17.889908256880734,,
1760476193.133856,0,1.6558837890625,0.12432861328125,0.12518310546875,9.435114503816791,-134.83969465648855,-41.045801526717554,446.2385321100918,-28.71559633027523,-17.61467889908257,,
1760476193.1551807,0,1.65606689453125,0.12420654296875,0.125244140625,9.427480916030534,-134.83969465648855,-37.13740458015267,469.72477064220186,-28.440366972477065,-17.61467889908257,,
1760476193.1659608,0,1.65618896484375,0.12420654296875,0.12518310546875,9.419847328244275,-171.96946564885496,-72.31297709923665,422.7522935779817,-28.623853211009177,-17.522935779816514,,
1760476193.187394,0,1.6563720703125,0.1243896484375,0.12530517578125,9.435114503816791,-170.01526717557252,-23.45801526717557,540.1834862385322,-28.440366972477065,-17.706422018348626,,
1760476193.2193856,0,1.656494140625,0.124267578125,0.125244140625,9.412213740458014,-150.4732824427481,-46.908396946564885,845.5045871559633,-28.899082568807337,-18.073394495412845,,
1760476193.2301688,0,1.65667724609375,0.12432861328125,0.12530517578125,9.435114503816791,-166.10687022900763,-44.954198473282446,446.2385321100918,-28.25688073394496,-17.79816513761468,,
1760476193.251397,0,1.65679931640625,0.124267578125,0.1253662109375,9.419847328244275,-191.5114503816794,-25.41221374045801,892.4770642201836,-28.53211009174312,-17.61467889908257,,
1760476193.262203,0,1.656982421875,0.124267578125,0.12548828125,9.419847328244275,-173.9236641221374,-21.50381679389313,775.045871559633,-29.174311926605505,-18.073394495412845,,
1760476193.2835498,0,1.6571044921875,0.12420654296875,0.1253662109375,9.404580152671755,-152.42748091603053,-1.9618320610687023,493.2110091743119,-28.9908256880734,-17.431192660550458,,
1760476193.3155763,0,1.65728759765625,0.12432861328125,0.12530517578125,9.419847328244275,-152.42748091603053,-50.81679389312977,516.6972477064221,-28.899082568807337,-18.073394495412845,,
1760476193.326291,0,1.65740966796875,0.12420654296875,0.12530517578125,9.412213740458014,-160.24427480916032,-27.366412213740457,493.2110091743119,-28.71559633027523,-17.706422018348626,,
1760476193.347635,0,1.6575927734375,0.12432861328125,0.12542724609375,9.427480916030534,-134.83969465648855,-44.954198473282446,540.1834862385322,-28.807339449541285,-18.1651376146789,,
1760476193.3796172,0,1.65771484375,0.12420654296875,0.12548828125,9.419847328244275,-164.15267175572518,-64.49618320610686,775.045871559633,-28.623853211009177,-17.79816513761468,,
1760476193.390369,0,1.65789794921875,0.12420654296875,0.1253662109375,9.427480916030534,-162.19847328244273,-44.954198473282446,657.6146788990826,-28.899082568807337,-17.79816513761468,,
1760476193.4011836,0,1.65802001953125,0.12420654296875,0.12530517578125,9.419847328244275,-138.74809160305344,-41.045801526717554,657.6146788990826,-28.440366972477065,-17.339449541284406,,
1760476193.411989,0,1.658203125,0.1241455078125,0.125244140625,9.427480916030534,-166.10687022900763,7.816793893129771,986.422018348624,-28.165137614678898,-18.256880733944957,,
1760476193.4439652,0,1.6583251953125,0.12420654296875,0.12530517578125,9.427480916030534,-138.74809160305344,0.0,563.6697247706422,-28.623853211009177,-18.1651376146789,,
1760476193.4759026,0,1.65850830078125,0.124267578125,0.12530517578125,9.419847328244275,-150.4732824427481,-21.50381679389313,540.1834862385322,-28.073394495412845,-18.1651376146789,,
1760476193.4866145,0,1.65863037109375,0.12420654296875,0.12530517578125,9.427480916030534,-132.8854961832061,-7.824427480916031,915.9633027522935,-28.073394495412845,-17.706422018348626,,
1760476193.5080023,0,1.6588134765625,0.1241455078125,0.125244140625,9.419847328244275,-128.9770992366412,-41.045801526717554,587.1559633027523,-29.541284403669728,-17.522935779816514,,
1760476193.53992,0,1.658935546875,0.12432861328125,0.125244140625,9.419847328244275,-187.6030534351145,-39.09160305343512,563.6697247706422,-29.44954128440367,-17.706422018348626,,
1760476193.5506318,0,1.65911865234375,0.124267578125,0.12542724609375,9.450381679389311,-152.42748091603053,-48.86259541984733,798.5321100917431,-28.53211009174312,-17.706422018348626,,
1760476193.5614274,0,1.65924072265625,0.124267578125,0.1253662109375,9.427480916030534,-136.793893129771,-50.81679389312977,681.1009174311927,-28.53211009174312,-18.440366972477065,,
1760476193.5930295,0,1.659423828125,0.1241455078125,0.12542724609375,9.419847328244275,-148.51908396946564,-64.49618320610686,751.559633027523,-28.71559633027523,-17.706422018348626,,
1760476193.603778,0,1.6595458984375,0.12420654296875,0.125244140625,9.427480916030534,-150.4732824427481,-43.0,634.1284403669725,-28.34862385321101,-18.073394495412845,,
1760476193.6252367,0,1.65972900390625,0.12420654296875,0.12530517578125,9.419847328244275,-160.24427480916032,-19.549618320610687,798.5321100917431,-28.899082568807337,-18.073394495412845,,
1760476193.636085,0,1.65985107421875,0.124267578125,0.125244140625,9.396946564885496,-160.24427480916032,-43.0,751.559633027523,-28.25688073394496,-17.522935779816514,,
1760476193.6679688,0,1.6600341796875,0.12420654296875,0.1253662109375,9.435114503816791,-154.38167938931298,-25.41221374045801,469.72477064220186,-28.34862385321101,-17.79816513761468,,
1760476193.678738,0,1.66015625,0.124267578125,0.12548828125,9.427480916030534,-160.24427480916032,-31.27480916030534,657.6146788990826,-28.165137614678898,-17.706422018348626,,
1760476193.7000334,0,1.66033935546875,0.12420654296875,0.1253662109375,9.404580152671755,-121.16030534351144,-15.641221374045802,516.6972477064221,-28.34862385321101,-18.1651376146789,,
1760476193.732046,0,1.66046142578125,0.124267578125,0.12530517578125,9.419847328244275,-156.33587786259542,-80.12977099236642,798.5321100917431,-28.807339449541285,-17.889908256880734,,
1760476193.7427754,0,1.66064453125,0.124267578125,0.1253662109375,9.427480916030534,-162.19847328244273,-64.49618320610686,657.6146788990826,-28.53211009174312,-17.98165137614679,,
1760476193.7535312,0,1.6607666015625,0.124267578125,0.12548828125,9.427480916030534,-125.06870229007632,-31.27480916030534,375.7798165137615,-28.899082568807337,-17.889908256880734,,
1760476193.764387,0,1.66094970703125,0.124267578125,0.12530517578125,9.427480916030534,-142.65648854961833,-52.770992366412216,563.6697247706422,-28.71559633027523,-17.61467889908257,,
1760476193.7858272,0,1.66107177734375,0.12420654296875,0.1253662109375,9.419847328244275,-150.4732824427481,-33.229007633587784,728.0733944954129,-28.71559633027523,-18.073394495412845,,
1760476193.81774,0,1.6612548828125,0.1241455078125,0.12530517578125,9.404580152671755,-164.15267175572518,-52.770992366412216,305.3211009174312,-28.623853211009177,-18.1651376146789,,
1760476193.828452,0,1.661376953125,0.124267578125,0.12542724609375,9.435114503816791,-152.42748091603053,-19.549618320610687,493.2110091743119,-28.807339449541285,-18.1651376146789,,
1760476193.8498814,0,1.66156005859375,0.12420654296875,0.1253662109375,9.442748091603054,-156.33587786259542,-21.50381679389313,704.5871559633028,-29.08256880733945,-17.706422018348626,,
1760476193.8817246,0,1.66168212890625,0.124267578125,0.12542724609375,9.427480916030534,-171.96946564885496,-19.549618320610687,375.7798165137615,-28.623853211009177,-17.79816513761468,,
1760476193.8924506,0,1.661865234375,0.1241455078125,0.125244140625,9.419847328244275,-154.38167938931298,-15.641221374045802,563.6697247706422,-28.623853211009177,-17.79816513761468,,
1760476193.9138377,0,1.6619873046875,0.12420654296875,0.1253662109375,9.435114503816791,-130.93129770992363,-43.0,587.1559633027523,-29.357798165137616,-17.79816513761468,,
1760476193.9246352,0,1.66217041015625,0.12432861328125,0.1253662109375,9.419847328244275,-138.74809160305344,-31.27480916030534,751.559633027523,-28.899082568807337,-18.440366972477065,,
1760476193.9460535,0,1.66229248046875,0.124267578125,0.12542724609375,9.419847328244275,-142.65648854961833,-54.725190839694655,446.2385321100918,-28.165137614678898,-17.431192660550458,,
1760476193.978026,0,1.6624755859375,0.124267578125,0.125244140625,9.427480916030534,-150.4732824427481,-17.595419847328245,728.0733944954129,-28.623853211009177,-17.24770642201835,,
1760476193.9888408,0,1.66259765625,0.1241455078125,0.1253662109375,9.419847328244275,-136.793893129771,-46.908396946564885,375.7798165137615,-28.53211009174312,-17.889908256880734,,
1760476194.0101054,0,1.66278076171875,0.12420654296875,0.12542724609375,9.404580152671755,-107.48091603053436,-27.366412213740457,328.8073394495413,-29.357798165137616,-17.431192660550458,,
1760476194.0209365,0,1.66290283203125,0.12432861328125,0.1253662109375,9.427480916030534,-164.15267175572518,-25.41221374045801,775.045871559633,-28.34862385321101,-18.53211009174312,,
1760476194.0422866,0,1.6630859375,0.1241455078125,0.1253662109375,9.419847328244275,-101.61832061068702,-35.18320610687023,540.1834862385322,-28.899082568807337,-17.61467889908257,,
1760476194.074091,0,1.6632080078125,0.124267578125,0.1253662109375,9.412213740458014,-171.96946564885496,-29.3206106870229,704.5871559633028,-28.53211009174312,-17.98165137614679,,
1760476194.106008,0,1.66339111328125,0.124267578125,0.12542724609375,9.442748091603054,-164.15267175572518,-35.18320610687023,657.6146788990826,-28.53211009174312,-17.339449541284406,,
1760476194.116783,0,1.66351318359375,0.124267578125,0.1253662109375,9.404580152671755,-154.38167938931298,-23.45801526717557,587.1559633027523,-28.623853211009177,-17.155963302752294,,
1760476194.1381893,0,1.6636962890625,0.124267578125,0.1253662109375,9.412213740458014,-142.65648854961833,-9.778625954198471,540.1834862385322,-28.807339449541285,-18.440366972477065,,
1760476194.1699886,0,1.663818359375,0.12420654296875,0.12542724609375,9.427480916030534,-166.10687022900763,-56.6793893129771,798.5321100917431,-27.981651376146782,-18.1651376146789,,
1760476194.1807697,0,1.66400146484375,0.12420654296875,0.12530517578125,9.427480916030534,-154.38167938931298,-29.3206106870229,657.6146788990826,-29.08256880733945,-17.522935779816514,,
1760476194.2022853,0,1.66412353515625,0.124267578125,0.1253662109375,9.412213740458014,-158.29007633587787,-62.54198473282442,540.1834862385322,-28.440366972477065,-17.61467889908257,,
1760476194.2130015,0,1.664306640625,0.12432861328125,0.1253662109375,9.419847328244275,-158.29007633587787,-3.916030534351145,939.4495412844036,-29.08256880733945,-17.79816513761468,,
1760476194.2344215,0,1.6644287109375,0.12420654296875,0.12530517578125,9.412213740458014,-127.02290076335878,-33.229007633587784,728.0733944954129,-28.165137614678898,-17.24770642201835,,
1760476194.2451963,0,1.66461181640625,0.1241455078125,0.125244140625,9.412213740458014,-138.74809160305344,-17.595419847328245,446.2385321100918,-27.981651376146782,-18.256880733944957,,
1760476194.2665467,0,1.66473388671875,0.1241455078125,0.1253662109375,9.427480916030534,-197.3740458015267,-68.40458015267176,775.045871559633,-28.899082568807337,-17.98165137614679,,
1760476194.27735,0,1.6649169921875,0.124267578125,0.12530517578125,9.389312977099236,-123.1145038167939,-7.824427480916031,375.7798165137615,-28.165137614678898,-17.889908256880734,,
1760476194.298817,0,1.6650390625,0.124267578125,0.12530517578125,9.419847328244275,-171.96946564885496,-39.09160305343512,845.5045871559633,-28.623853211009177,-17.79816513761468,,
1760476194.330618,0,1.66522216796875,0.1241455078125,0.125244140625,9.419847328244275,-138.74809160305344,-48.86259541984733,516.6972477064221,-28.34862385321101,-17.79816513761468,,
1760476194.3413882,0,1.66534423828125,0.12420654296875,0.1253662109375,9.419847328244275,-171.96946564885496,-58.63358778625954,563.6697247706422,-28.25688073394496,-17.98165137614679,,
1760476194.3627014,0,1.66552734375,0.12432861328125,0.12530517578125,9.419847328244275,-166.10687022900763,-43.0,822.0183486238533,-28.34862385321101,-17.339449541284406,,
1760476194.384002,0,1.6656494140625,0.124267578125,0.1253662109375,9.419847328244275,-160.24427480916032,-35.18320610687023,868.9908256880734,-28.165137614678898,-18.440366972477065,,
1760476194.3948648,0,1.66583251953125,0.12432861328125,0.12542724609375,9.419847328244275,-144.61068702290078,-44.954198473282446,610.6422018348624,-28.53211009174312,-18.34862385321101,,
1760476194.4162672,0,1.66595458984375,0.1241455078125,0.125244140625,9.419847328244275,-152.42748091603053,-7.824427480916031,728.0733944954129,-28.899082568807337,-16.788990825688074,,
1760476194.4588077,0,1.6661376953125,0.12432861328125,0.125244140625,9.419847328244275,-103.57251908396948,-37.13740458015267,469.72477064220186,-28.71559633027523,-17.24770642201835,,
1760476194.469413,0,1.666259765625,0.12432861328125,0.1253662109375,9.427480916030534,-138.74809160305344,-46.908396946564885,634.1284403669725,-28.34862385321101,-17.522935779816514,,
1760476194.4908314,0,1.66644287109375,0.124267578125,0.1253662109375,9.412213740458014,-109.4351145038168,-39.09160305343512,798.5321100917431,-28.623853211009177,-17.889908256880734,,
1760476194.5121555,0,1.66656494140625,0.1243896484375,0.12530517578125,9.419847328244275,-171.96946564885496,-19.549618320610687,681.1009174311927,-27.981651376146782,-17.889908256880734,,
1760476194.5229208,0,1.666748046875,0.1241455078125,0.12530517578125,9.419847328244275,-160.24427480916032,-62.54198473282442,446.2385321100918,-28.9908256880734,-17.431192660550458,,
1760476194.5443048,0,1.6668701171875,0.12420654296875,0.1253662109375,9.419847328244275,-158.29007633587787,-46.908396946564885,587.1559633027523,-28.25688073394496,-17.61467889908257,,
1760476194.5551162,0,1.66705322265625,0.12432861328125,0.1253662109375,9.427480916030534,-130.93129770992363,-21.50381679389313,634.1284403669725,-27.431192660550455,-17.706422018348626,,
1760476194.5765004,0,1.66717529296875,0.12432861328125,0.125244140625,9.404580152671755,-160.24427480916032,-58.63358778625954,399.2660550458716,-28.71559633027523,-18.440366972477065,,
1760476194.5872917,0,1.6673583984375,0.12420654296875,0.12542724609375,9.419847328244275,-154.38167938931298,-27.366412213740457,422.7522935779817,-28.165137614678898,-17.98165137614679,,
1760476194.608618,0,1.66748046875,0.124267578125,0.12542724609375,9.419847328244275,-142.65648854961833,-50.81679389312977,681.1009174311927,-28.623853211009177,-18.073394495412845,,
1760476194.6405208,0,1.66766357421875,0.124267578125,0.1253662109375,9.412213740458014,-160.24427480916032,-39.09160305343512,681.1009174311927,-28.623853211009177,-17.706422018348626,,
1760476194.6513174,0,1.66778564453125,0.12432861328125,0.125244140625,9.427480916030534,-158.29007633587787,-58.63358778625954,587.1559633027523,-28.165137614678898,-17.706422018348626,,
1760476194.6727035,0,1.66796875,0.124267578125,0.12518310546875,9.419847328244275,-142.65648854961833,-19.549618320610687,516.6972477064221,-29.26605504587156,-17.06422018348624,,
1760476194.7045712,0,1.6680908203125,0.12432861328125,0.12530517578125,9.412213740458014,-173.9236641221374,-31.27480916030534,399.2660550458716,-28.440366972477065,-17.889908256880734,,
1760476194.7364657,0,1.66827392578125,0.12432861328125,0.12542724609375,9.435114503816791,-156.33587786259542,-52.770992366412216,469.72477064220186,-28.71559633027523,-18.53211009174312,,
1760476194.7472186,0,1.66839599609375,0.1243896484375,0.125244140625,9.419847328244275,-162.19847328244273,-43.0,798.5321100917431,-27.79816513761468,-18.53211009174312,,
1760476194.7686093,0,1.6685791015625,0.124267578125,0.1253662109375,9.427480916030534,-166.10687022900763,-37.13740458015267,375.7798165137615,-29.26605504587156,-17.706422018348626,,
1760476194.779391,0,1.668701171875,0.124267578125,0.12518310546875,9.419847328244275,-168.06106870229007,-31.27480916030534,775.045871559633,-28.71559633027523,-18.1651376146789,,
1760476194.8008192,0,1.66888427734375,0.12420654296875,0.1253662109375,9.412213740458014,-170.01526717557252,-19.549618320610687,822.0183486238533,-28.25688073394496,-17.06422018348624,,
1760476194.8115332,0,1.66900634765625,0.12420654296875,0.12542724609375,9.419847328244275,-179.78625954198472,-13.687022900763358,775.045871559633,-28.25688073394496,-18.073394495412845,,
1760476194.8330128,0,1.669189453125,0.12420654296875,0.12518310546875,9.427480916030534,-179.78625954198472,-37.13740458015267,681.1009174311927,-27.706422018348626,-18.1651376146789,,
1760476194.85428,0,1.6693115234375,0.12432861328125,0.1253662109375,9.404580152671755,-156.33587786259542,-29.3206106870229,610.6422018348624,-28.073394495412845,-18.1651376146789,,
1760476194.8651235,0,1.66949462890625,0.12432861328125,0.12530517578125,9.442748091603054,-173.9236641221374,-52.770992366412216,728.0733944954129,-27.889908256880737,-18.1651376146789,,
1760476194.8864346,0,1.66961669921875,0.124267578125,0.12548828125,9.419847328244275,-170.01526717557252,-78.17557251908397,399.2660550458716,-28.623853211009177,-17.706422018348626,,
1760476194.8972852,0,1.6697998046875,0.124267578125,0.12548828125,9.419847328244275,-154.38167938931298,-48.86259541984733,681.1009174311927,-28.71559633027523,-18.256880733944957,,
1760476194.9292262,0,1.669921875,0.124267578125,0.12530517578125,9.435114503816791,-138.74809160305344,-35.18320610687023,399.2660550458716,-28.807339449541285,-17.431192660550458,,
1760476194.9611356,0,1.67010498046875,0.1241455078125,0.1253662109375,9.419847328244275,-166.10687022900763,-25.41221374045801,587.1559633027523,-28.34862385321101,-17.79816513761468,,
1760476194.971925,0,1.67022705078125,0.124267578125,0.1253662109375,9.427480916030534,-138.74809160305344,-21.50381679389313,798.5321100917431,-27.614678899082566,-17.98165137614679,,
1760476194.9933286,0,1.67041015625,0.124267578125,0.1253662109375,9.419847328244275,-150.4732824427481,-33.229007633587784,399.2660550458716,-27.981651376146782,-17.889908256880734,,
1760476195.0041437,0,1.6705322265625,0.124267578125,0.1253662109375,9.412213740458014,-156.33587786259542,-43.0,822.0183486238533,-28.165137614678898,-17.79816513761468,,
1760476195.0151286,0,1.67071533203125,0.124267578125,0.12518310546875,9.435114503816791,-181.7404580152672,-19.549618320610687,610.6422018348624,-28.71559633027523,-17.889908256880734,,
1760476195.0469005,0,1.67083740234375,0.12420654296875,0.12542724609375,9.404580152671755,-160.24427480916032,-9.778625954198471,704.5871559633028,-27.889908256880737,-18.073394495412845,,
1760476195.0786333,0,1.6710205078125,0.12420654296875,0.12542724609375,9.435114503816791,-154.38167938931298,-43.0,892.4770642201836,-27.889908256880737,-18.073394495412845,,
1760476195.0894997,0,1.671142578125,0.124267578125,0.125244140625,9.427480916030534,-152.42748091603053,-50.81679389312977,352.2935779816514,-28.34862385321101,-17.06422018348624,,
1760476195.1107926,0,1.67132568359375,0.124267578125,0.1253662109375,9.427480916030534,-134.83969465648855,-78.17557251908397,681.1009174311927,-28.440366972477065,-17.155963302752294,,
1760476195.1214764,0,1.67144775390625,0.12420654296875,0.12542724609375,9.404580152671755,-148.51908396946564,-7.824427480916031,657.6146788990826,-28.9908256880734,-18.256880733944957,,
1760476195.1532109,0,1.671630859375,0.124267578125,0.125244140625,9.427480916030534,-164.15267175572518,-25.41221374045801,375.7798165137615,-28.440366972477065,-17.61467889908257,,
1760476195.1639678,0,1.6717529296875,0.1241455078125,0.125244140625,9.427480916030534,-156.33587786259542,-66.45038167938931,493.2110091743119,-28.25688073394496,-17.79816513761468,,
1760476195.1853275,0,1.67193603515625,0.12420654296875,0.125244140625,9.427480916030534,-173.9236641221374,-13.687022900763358,822.0183486238533,-28.34862385321101,-17.98165137614679,,
1760476195.2066064,0,1.67205810546875,0.124267578125,0.125244140625,9.419847328244275,-175.87786259541986,-13.687022900763358,563.6697247706422,-27.522935779816518,-18.256880733944957,,
1760476195.217314,0,1.6722412109375,0.124267578125,0.12530517578125,9.419847328244275,-146.5648854961832,-46.908396946564885,634.1284403669725,-28.25688073394496,-18.073394495412845,,
1760476195.2384846,0,1.67236328125,0.12432861328125,0.12548828125,9.412213740458014,-140.70229007633588,-48.86259541984733,469.72477064220186,-28.71559633027523,-18.073394495412845,,
1760476195.249343,0,1.67254638671875,0.12432861328125,0.12530517578125,9.419847328244275,-156.33587786259542,-21.50381679389313,634.1284403669725,-28.807339449541285,-17.24770642201835,,
1760476195.2812662,0,1.67266845703125,0.124267578125,0.12530517578125,9.412213740458014,-128.9770992366412,-41.045801526717554,469.72477064220186,-28.25688073394496,-17.79816513761468,,
1760476195.3131871,0,1.6728515625,0.1241455078125,0.12530517578125,9.412213740458014,-162.19847328244273,-43.0,986.422018348624,-27.889908256880737,-18.073394495412845,,
1760476195.3239107,0,1.6729736328125,0.12420654296875,0.12530517578125,9.419847328244275,-115.29770992366412,-48.86259541984733,681.1009174311927,-28.073394495412845,-18.34862385321101,,
1760476195.3452852,0,1.67315673828125,0.12420654296875,0.12530517578125,9.404580152671755,-175.87786259541986,-25.41221374045801,681.1009174311927,-27.981651376146782,-17.79816513761468,,
1760476195.3560262,0,1.67327880859375,0.124267578125,0.125244140625,9.412213740458014,-154.38167938931298,-25.41221374045801,845.5045871559633,-28.807339449541285,-17.24770642201835,,
1760476195.377425,0,1.6734619140625,0.1241455078125,0.1253662109375,9.419847328244275,-146.5648854961832,-27.366412213740457,728.0733944954129,-28.71559633027523,-16.972477064220186,,
1760476195.398775,0,1.673583984375,0.1241455078125,0.12554931640625,9.427480916030534,-160.24427480916032,9.770992366412214,704.5871559633028,-27.981651376146782,-17.706422018348626,,
1760476195.4095798,0,1.67376708984375,0.124267578125,0.1253662109375,9.435114503816791,-128.9770992366412,0.0,657.6146788990826,-28.25688073394496,-17.79816513761468,,
1760476195.430971,0,1.67388916015625,0.1243896484375,0.12542724609375,9.427480916030534,-140.70229007633588,-21.50381679389313,399.2660550458716,-27.15596330275229,-17.431192660550458,,
1760476195.4735444,0,1.674072265625,0.12432861328125,0.1253662109375,9.419847328244275,-146.5648854961832,-44.954198473282446,399.2660550458716,-27.706422018348626,-17.06422018348624,,
1760476195.4842803,0,1.6741943359375,0.124267578125,0.125244140625,9.419847328244275,-170.01526717557252,-43.0,681.1009174311927,-28.165137614678898,-16.605504587155963,,
1760476195.505691,0,1.67437744140625,0.12432861328125,0.1253662109375,9.427480916030534,-103.57251908396948,-50.81679389312977,822.0183486238533,-27.247706422018343,-16.055045871559635,,
1760476195.5164297,0,1.67449951171875,0.124267578125,0.1253662109375,9.427480916030534,-132.8854961832061,-27.366412213740457,563.6697247706422,-27.247706422018343,-15.96330275229358,,
1760476195.537886,0,1.6746826171875,0.12432861328125,0.12542724609375,9.419847328244275,-173.9236641221374,-56.6793893129771,422.7522935779817,-26.880733944954127,-16.51376146788991,,
1760476195.559182,0,1.6748046875,0.12445068359375,0.12530517578125,9.412213740458014,-142.65648854961833,-50.81679389312977,399.2660550458716,-26.605504587155966,-16.51376146788991,,
1760476195.5699985,0,1.67498779296875,0.12432861328125,0.12530517578125,9.412213740458014,-127.02290076335878,-3.916030534351145,751.559633027523,-26.513761467889907,-15.59633027522936,,
1760476195.591329,0,1.67510986328125,0.1243896484375,0.1253662109375,9.419847328244275,-132.8854961832061,-46.908396946564885,728.0733944954129,-27.247706422018343,-15.96330275229358,,
1760476195.6022148,0,1.67529296875,0.12420654296875,0.12518310546875,9.419847328244275,-170.01526717557252,-29.3206106870229,892.4770642201836,-26.880733944954127,-14.770642201834864,,
1760476195.6340296,0,1.6754150390625,0.124267578125,0.1253662109375,9.427480916030534,-158.29007633587787,-78.17557251908397,681.1009174311927,-27.15596330275229,-15.688073394495412,,
1760476195.6553628,0,1.67559814453125,0.12432861328125,0.1253662109375,9.419847328244275,-128.9770992366412,-70.3587786259542,610.6422018348624,-26.880733944954127,-15.412844036697248,,
1760476195.6660757,0,1.67572021484375,0.12420654296875,0.12530517578125,9.427480916030534,-154.38167938931298,-70.3587786259542,422.7522935779817,-26.972477064220183,-15.59633027522936,,
1760476195.6874478,0,1.6759033203125,0.12420654296875,0.125244140625,9.435114503816791,-160.24427480916032,-62.54198473282442,493.2110091743119,-27.15596330275229,-15.59633027522936,,
1760476195.698408,0,1.676025390625,0.12420654296875,0.12530517578125,9.427480916030534,-125.06870229007632,-35.18320610687023,962.9357798165138,-27.06422018348624,-15.59633027522936,,
1760476195.7198043,0,1.67620849609375,0.12432861328125,0.1253662109375,9.412213740458014,-128.9770992366412,-52.770992366412216,610.6422018348624,-26.972477064220183,-14.770642201834864,,
1760476195.7516956,0,1.67633056640625,0.124267578125,0.12542724609375,9.427480916030534,-158.29007633587787,-78.17557251908397,962.9357798165138,-26.880733944954127,-15.504587155963304,,
1760476195.7624693,0,1.676513671875,0.12420654296875,0.125244140625,9.412213740458014,-171.96946564885496,-31.27480916030534,681.1009174311927,-26.605504587155966,-15.504587155963304,,
1760476195.783902,0,1.6766357421875,0.124267578125,0.1253662109375,9.404580152671755,-166.10687022900763,-46.908396946564885,493.2110091743119,-26.972477064220183,-15.688073394495412,,
1760476195.8158686,0,1.67681884765625,0.12420654296875,0.12542724609375,9.427480916030534,-158.29007633587787,-39.09160305343512,540.1834862385322,-26.880733944954127,-15.412844036697248,,
1760476195.8266163,0,1.67694091796875,0.12432861328125,0.1253662109375,9.412213740458014,-150.4732824427481,-41.045801526717554,446.2385321100918,-27.706422018348626,-15.77981651376147,,
1760476195.848115,0,1.6771240234375,0.12432861328125,0.12542724609375,9.419847328244275,-150.4732824427481,-29.3206106870229,728.0733944954129,-26.788990825688074,-14.770642201834864,,
1760476195.8800128,0,1.67724609375,0.124267578125,0.1253662109375,9.427480916030534,-173.9236641221374,-29.3206106870229,540.1834862385322,-27.706422018348626,-15.688073394495412,,
1760476195.8908432,0,1.67742919921875,0.124267578125,0.1253662109375,9.442748091603054,-148.51908396946564,-76.22137404580153,516.6972477064221,-26.42201834862385,-14.770642201834864,,
1760476195.912284,0,1.67755126953125,0.12420654296875,0.12530517578125,9.419847328244275,-146.5648854961832,-25.41221374045801,634.1284403669725,-26.972477064220183,-15.412844036697248,,
1760476195.9230332,0,1.677734375,0.124267578125,0.12530517578125,9.419847328244275,-158.29007633587787,-60.58778625954199,610.6422018348624,-26.69724770642202,-15.688073394495412,,
1760476195.944371,0,1.6778564453125,0.12420654296875,0.12530517578125,9.427480916030534,-127.02290076335878,-23.45801526717557,493.2110091743119,-26.605504587155966,-16.055045871559635,,
1760476195.9763415,0,1.67803955078125,0.124267578125,0.12542724609375,9.419847328244275,-128.9770992366412,-35.18320610687023,563.6697247706422,-27.431192660550455,-15.59633027522936,,
1760476195.987142,0,1.67816162109375,0.124267578125,0.125244140625,9.412213740458014,-148.51908396946564,-23.45801526717557,775.045871559633,-26.880733944954127,-15.229357798165138,,
1760476195.998049,0,1.6783447265625,0.12420654296875,0.1253662109375,9.396946564885496,-136.793893129771,-23.45801526717557,446.2385321100918,-27.431192660550455,-15.045871559633028,,
1760476196.040427,0,1.678466796875,0.124267578125,0.1253662109375,9.427480916030534,-144.61068702290078,-41.045801526717554,540.1834862385322,-26.972477064220183,-15.504587155963304,,
1760476196.051232,0,1.67864990234375,0.1243896484375,0.1253662109375,9.427480916030534,-134.83969465648855,-19.549618320610687,610.6422018348624,-26.880733944954127,-15.59633027522936,,
1760476196.0726266,0,1.67877197265625,0.124267578125,0.12530517578125,9.412213740458014,-156.33587786259542,-43.0,422.7522935779817,-27.247706422018343,-15.96330275229358,,
1760476196.1045566,0,1.678955078125,0.12420654296875,0.12530517578125,9.412213740458014,-152.42748091603053,-48.86259541984733,493.2110091743119,-27.15596330275229,-16.14678899082569,,
1760476196.1153965,0,1.6790771484375,0.1243896484375,0.125244140625,9.412213740458014,-158.29007633587787,-31.27480916030534,798.5321100917431,-26.880733944954127,-15.137614678899084,,
1760476196.1261754,0,1.67926025390625,0.12432861328125,0.1253662109375,9.412213740458014,-132.8854961832061,-48.86259541984733,46.972477064220186,-27.614678899082566,-15.871559633027523,,
1760476196.136862,0,1.67938232421875,0.12420654296875,0.1253662109375,9.412213740458014,-154.38167938931298,-46.908396946564885,704.5871559633028,-27.614678899082566,-14.770642201834864,,
1760476196.158213,0,1.6795654296875,0.124267578125,0.1253662109375,9.427480916030534,-138.74809160305344,-17.595419847328245,563.6697247706422,-27.889908256880737,-15.412844036697248,,
1760476196.169007,0,1.6796875,0.12432861328125,0.12530517578125,9.419847328244275,-144.61068702290078,-25.41221374045801,469.72477064220186,-27.522935779816518,-16.238532110091743,,
1760476196.190361,0,1.67987060546875,0.124267578125,0.1253662109375,9.427480916030534,-166.10687022900763,-29.3206106870229,681.1009174311927,-26.972477064220183,-15.504587155963304,,
1760476196.2219756,0,1.67999267578125,0.124267578125,0.1253662109375,9.412213740458014,-170.01526717557252,-46.908396946564885,634.1284403669725,-27.33944954128441,-15.77981651376147,,
1760476196.2326014,0,1.68017578125,0.124267578125,0.125244140625,9.427480916030534,-115.29770992366412,-23.45801526717557,728.0733944954129,-27.522935779816518,-15.412844036697248,,
1760476196.253673,0,1.6802978515625,0.12420654296875,0.125244140625,9.427480916030534,-177.8320610687023,-64.49618320610686,352.2935779816514,-26.880733944954127,-15.045871559633028,,
1760476196.285716,0,1.68048095703125,0.1243896484375,0.1253662109375,9.412213740458014,-115.29770992366412,-25.41221374045801,939.4495412844036,-26.788990825688074,-16.3302752293578,,
1760476196.2964652,0,1.68060302734375,0.12432861328125,0.12530517578125,9.412213740458014,-142.65648854961833,-21.50381679389313,422.7522935779817,-27.33944954128441,-16.055045871559635,,
1760476196.317915,0,1.6807861328125,0.1243896484375,0.1253662109375,9.427480916030534,-175.87786259541986,-19.549618320610687,516.6972477064221,-27.06422018348624,-15.412844036697248,,
1760476196.328542,0,1.680908203125,0.12432861328125,0.12518310546875,9.419847328244275,-140.70229007633588,-23.45801526717557,540.1834862385322,-27.06422018348624,-15.412844036697248,,
1760476196.3499925,0,1.68109130859375,0.12420654296875,0.12530517578125,9.435114503816791,-140.70229007633588,-19.549618320610687,493.2110091743119,-27.15596330275229,-15.504587155963304,,
1760476196.3824308,0,1.68121337890625,0.12432861328125,0.125244140625,9.404580152671755,-170.01526717557252,-21.50381679389313,681.1009174311927,-27.522935779816518,-15.504587155963304,,
1760476196.392884,0,1.681396484375,0.12432861328125,0.1253662109375,9.419847328244275,-201.2824427480916,-29.3206106870229,751.559633027523,-27.247706422018343,-15.688073394495412,,
1760476196.4139848,0,1.6815185546875,0.12420654296875,0.12548828125,9.427480916030534,-144.61068702290078,-70.3587786259542,657.6146788990826,-27.33944954128441,-15.59633027522936,,
1760476196.4454608,0,1.68170166015625,0.12432861328125,0.12542724609375,9.412213740458014,-164.15267175572518,-46.908396946564885,375.7798165137615,-26.605504587155966,-15.688073394495412,,
1760476196.456112,0,1.68182373046875,0.124267578125,0.1253662109375,9.419847328244275,-146.5648854961832,-41.045801526717554,469.72477064220186,-26.880733944954127,-15.412844036697248,,
1760476196.4774413,0,1.6820068359375,0.12420654296875,0.125244140625,9.412213740458014,-162.19847328244273,-58.63358778625954,751.559633027523,-28.073394495412845,-14.954128440366974,,
1760476196.48831,0,1.68212890625,0.1241455078125,0.12542724609375,9.419847328244275,-179.78625954198472,-70.3587786259542,634.1284403669725,-26.605504587155966,-14.862385321100918,,
1760476196.5094578,0,1.68231201171875,0.1243896484375,0.12530517578125,9.435114503816791,-177.8320610687023,-31.27480916030534,399.2660550458716,-26.880733944954127,-15.504587155963304,,
1760476196.5411425,0,1.68243408203125,0.12432861328125,0.12548828125,9.435114503816791,-156.33587786259542,-58.63358778625954,868.9908256880734,-27.06422018348624,-15.504587155963304,,
1760476196.5519462,0,1.6826171875,0.12420654296875,0.125244140625,9.419847328244275,-128.9770992366412,-43.0,751.559633027523,-27.522935779816518,-15.504587155963304,,
1760476196.57329,0,1.6827392578125,0.124267578125,0.12518310546875,9.427480916030534,-152.42748091603053,-48.86259541984733,728.0733944954129,-28.34862385321101,-15.59633027522936,,
1760476196.604912,0,1.68292236328125,0.12432861328125,0.12542724609375,9.442748091603054,-154.38167938931298,-37.13740458015267,446.2385321100918,-26.69724770642202,-15.321100917431194,,
1760476196.6158009,0,1.68304443359375,0.124267578125,0.125244140625,9.412213740458014,-168.06106870229007,-11.732824427480915,234.86238532110093,-27.15596330275229,-15.229357798165138,,
1760476196.6370597,0,1.6832275390625,0.12432861328125,0.125244140625,9.412213740458014,-160.24427480916032,-15.641221374045802,446.2385321100918,-27.06422018348624,-15.504587155963304,,
1760476196.647971,0,1.683349609375,0.12432861328125,0.125244140625,9.404580152671755,-171.96946564885496,-48.86259541984733,587.1559633027523,-27.431192660550455,-16.14678899082569,,
1760476196.6692846,0,1.68353271484375,0.12420654296875,0.12530517578125,9.412213740458014,-173.9236641221374,-66.45038167938931,845.5045871559633,-27.431192660550455,-15.412844036697248,,
1760476196.7010205,0,1.68365478515625,0.12432861328125,0.12530517578125,9.435114503816791,-156.33587786259542,-15.641221374045802,845.5045871559633,-27.614678899082566,-15.59633027522936,,
1760476196.7116945,0,1.683837890625,0.12445068359375,0.12530517578125,9.419847328244275,-171.96946564885496,-39.09160305343512,657.6146788990826,-27.06422018348624,-15.045871559633028,,
1760476196.7330048,0,1.6839599609375,0.12420654296875,0.12542724609375,9.419847328244275,-150.4732824427481,3.908396946564885,728.0733944954129,-27.15596330275229,-15.871559633027523,,
1760476196.7436707,0,1.68414306640625,0.124267578125,0.12530517578125,9.442748091603054,-162.19847328244273,-35.18320610687023,728.0733944954129,-26.972477064220183,-15.871559633027523,,
1760476196.7650433,0,1.68426513671875,0.12420654296875,0.1253662109375,9.404580152671755,-166.10687022900763,-19.549618320610687,610.6422018348624,-27.15596330275229,-16.055045871559635,,
1760476196.7969055,0,1.6844482421875,0.124267578125,0.12530517578125,9.427480916030534,-134.83969465648855,-33.229007633587784,962.9357798165138,-27.79816513761468,-15.871559633027523,,
1760476196.8075652,0,1.6845703125,0.124267578125,0.1253662109375,9.404580152671755,-160.24427480916032,-27.366412213740457,399.2660550458716,-26.972477064220183,-15.77981651376147,,
1760476196.8183432,0,1.68475341796875,0.124267578125,0.12542724609375,9.412213740458014,-140.70229007633588,-46.908396946564885,751.559633027523,-27.15596330275229,-14.862385321100918,,
1760476196.829136,0,1.68487548828125,0.124267578125,0.12542724609375,9.419847328244275,-150.4732824427481,-29.3206106870229,657.6146788990826,-27.06422018348624,-15.77981651376147,,
1760476196.860855,0,1.68505859375,0.124267578125,0.125244140625,9.427480916030534,-136.793893129771,-52.770992366412216,610.6422018348624,-27.247706422018343,-15.96330275229358,,
1760476196.8925016,0,1.6851806640625,0.12432861328125,0.1253662109375,9.427480916030534,-158.29007633587787,-31.27480916030534,516.6972477064221,-26.788990825688074,-16.055045871559635,,
1760476196.903206,0,1.68536376953125,0.1243896484375,0.12530517578125,9.427480916030534,-171.96946564885496,-52.770992366412216,587.1559633027523,-27.06422018348624,-15.504587155963304,,
1760476196.924507,0,1.68548583984375,0.124267578125,0.12542724609375,9.419847328244275,-148.51908396946564,-21.50381679389313,892.4770642201836,-27.33944954128441,-15.871559633027523,,
1760476196.9563923,0,1.6856689453125,0.124267578125,0.12530517578125,9.419847328244275,-170.01526717557252,-33.229007633587784,751.559633027523,-27.33944954128441,-15.59633027522936,,
1760476196.9672625,0,1.685791015625,0.1241455078125,0.12530517578125,9.427480916030534,-158.29007633587787,-21.50381679389313,187.88990825688077,-27.06422018348624,-15.96330275229358,,
1760476196.988591,0,1.68597412109375,0.12432861328125,0.1253662109375,9.435114503816791,-150.4732824427481,-37.13740458015267,540.1834862385322,-26.788990825688074,-16.3302752293578,,
1760476197.0204787,0,1.68609619140625,0.12432861328125,0.1253662109375,9.427480916030534,-140.70229007633588,0.0,540.1834862385322,-26.788990825688074,-15.96330275229358,,
1760476197.0313933,0,1.686279296875,0.12432861328125,0.12530517578125,9.412213740458014,-134.83969465648855,-44.954198473282446,775.045871559633,-27.522935779816518,-15.77981651376147,,
1760476197.0421352,0,1.6864013671875,0.12432861328125,0.12542724609375,9.419847328244275,-142.65648854961833,-43.0,751.559633027523,-26.972477064220183,-15.412844036697248,,
1760476197.053,0,1.68658447265625,0.124267578125,0.1253662109375,9.412213740458014,-127.02290076335878,-7.824427480916031,704.5871559633028,-27.706422018348626,-15.871559633027523,,
1760476197.0849874,0,1.68670654296875,0.12432861328125,0.12530517578125,9.404580152671755,-152.42748091603053,-35.18320610687023,540.1834862385322,-27.247706422018343,-15.504587155963304,,
1760476197.0957232,0,1.6868896484375,0.124267578125,0.1253662109375,9.419847328244275,-144.61068702290078,-62.54198473282442,469.72477064220186,-27.247706422018343,-15.412844036697248,,
1760476197.116999,0,1.68701171875,0.12432861328125,0.1253662109375,9.419847328244275,-173.9236641221374,-9.778625954198471,516.6972477064221,-27.889908256880737,-15.688073394495412,,
1760476197.1487184,0,1.68719482421875,0.124267578125,0.1253662109375,9.404580152671755,-170.01526717557252,-17.595419847328245,375.7798165137615,-27.431192660550455,-15.412844036697248,,
1760476197.159428,0,1.68731689453125,0.124267578125,0.1253662109375,9.435114503816791,-134.83969465648855,-52.770992366412216,634.1284403669725,-27.981651376146782,-15.045871559633028,,
1760476197.1809509,0,1.6875,0.124267578125,0.1253662109375,9.419847328244275,-158.29007633587787,-64.49618320610686,587.1559633027523,-28.25688073394496,-15.688073394495412,,
1760476197.1917536,0,1.6876220703125,0.124267578125,0.1253662109375,9.427480916030534,-162.19847328244273,-29.3206106870229,540.1834862385322,-27.15596330275229,-15.77981651376147,,
1760476197.212987,0,1.68780517578125,0.12432861328125,0.1253662109375,9.419847328244275,-166.10687022900763,-27.366412213740457,704.5871559633028,-26.513761467889907,-15.871559633027523,,
1760476197.2448788,0,1.68792724609375,0.12432861328125,0.12542724609375,9.427480916030534,-140.70229007633588,-25.41221374045801,751.559633027523,-27.431192660550455,-16.14678899082569,,
1760476197.2556293,0,1.6881103515625,0.12432861328125,0.1253662109375,9.419847328244275,-115.29770992366412,-31.27480916030534,751.559633027523,-27.522935779816518,-15.688073394495412,,
1760476197.266392,0,1.688232421875,0.12420654296875,0.12542724609375,9.419847328244275,-158.29007633587787,-50.81679389312977,868.9908256880734,-27.247706422018343,-15.321100917431194,,
1760476197.277289,0,1.68841552734375,0.12432861328125,0.125244140625,9.435114503816791,-136.793893129771,-35.18320610687023,540.1834862385322,-27.06422018348624,-16.14678899082569,,
1760476197.309198,0,1.68853759765625,0.12432861328125,0.125244140625,9.412213740458014,-162.19847328244273,-52.770992366412216,657.6146788990826,-26.238532110091743,-15.59633027522936,,
1760476197.341004,0,1.688720703125,0.1241455078125,0.125244140625,9.435114503816791,-154.38167938931298,-54.725190839694655,540.1834862385322,-26.605504587155966,-16.055045871559635,,
1760476197.3518314,0,1.6888427734375,0.12420654296875,0.125244140625,9.412213740458014,-146.5648854961832,-25.41221374045801,258.34862385321105,-27.15596330275229,-16.055045871559635,,
1760476197.3732176,0,1.68902587890625,0.12432861328125,0.1253662109375,9.404580152671755,-119.206106870229,-33.229007633587784,798.5321100917431,-27.247706422018343,-14.954128440366974,,
1760476197.3839335,0,1.68914794921875,0.12432861328125,0.12530517578125,9.396946564885496,-146.5648854961832,-43.0,915.9633027522935,-27.15596330275229,-15.59633027522936,,
1760476197.4053574,0,1.6893310546875,0.12432861328125,0.1253662109375,9.435114503816791,-132.8854961832061,-17.595419847328245,610.6422018348624,-26.880733944954127,-15.229357798165138,,
1760476197.4372928,0,1.689453125,0.12420654296875,0.12530517578125,9.419847328244275,-148.51908396946564,-17.595419847328245,681.1009174311927,-27.431192660550455,-15.137614678899084,,
1760476197.4480364,0,1.68963623046875,0.12420654296875,0.12530517578125,9.419847328244275,-134.83969465648855,-19.549618320610687,1009.908256880734,-26.605504587155966,-15.96330275229358,,
1760476197.4589038,0,1.68975830078125,0.12432861328125,0.1253662109375,9.419847328244275,-144.61068702290078,-37.13740458015267,775.045871559633,-27.15596330275229,-16.14678899082569,,
1760476197.4906223,0,1.68994140625,0.12432861328125,0.1253662109375,9.442748091603054,-125.06870229007632,-5.870229007633588,446.2385321100918,-27.522935779816518,-15.321100917431194,,
1760476197.5225086,0,1.6900634765625,0.12432861328125,0.1253662109375,9.427480916030534,-183.6946564885496,-31.27480916030534,751.559633027523,-27.15596330275229,-15.688073394495412,,
1760476197.5332692,0,1.69024658203125,0.124267578125,0.1253662109375,9.419847328244275,-136.793893129771,-29.3206106870229,822.0183486238533,-27.79816513761468,-15.688073394495412,,
1760476197.5547128,0,1.69036865234375,0.1243896484375,0.12530517578125,9.427480916030534,-152.42748091603053,-15.641221374045802,845.5045871559633,-27.247706422018343,-15.871559633027523,,
1760476197.5654335,0,1.6905517578125,0.124267578125,0.12530517578125,9.419847328244275,-162.19847328244273,-17.595419847328245,563.6697247706422,-27.247706422018343,-15.871559633027523,,
1760476197.5868535,0,1.690673828125,0.124267578125,0.125244140625,9.427480916030534,-191.5114503816794,-39.09160305343512,446.2385321100918,-27.247706422018343,-15.77981651376147,,
1760476197.5975792,0,1.69085693359375,0.124267578125,0.1253662109375,9.412213740458014,-164.15267175572518,-54.725190839694655,704.5871559633028,-27.614678899082566,-15.77981651376147,,
1760476197.6190257,0,1.69097900390625,0.1243896484375,0.12530517578125,9.412213740458014,-138.74809160305344,-41.045801526717554,493.2110091743119,-27.247706422018343,-15.321100917431194,,
1760476197.6509516,0,1.691162109375,0.12445068359375,0.12530517578125,9.419847328244275,-164.15267175572518,-56.6793893129771,634.1284403669725,-26.880733944954127,-15.59633027522936,,
1760476197.661705,0,1.6912841796875,0.124267578125,0.12548828125,9.412213740458014,-144.61068702290078,-17.595419847328245,775.045871559633,-26.972477064220183,-15.504587155963304,,
1760476197.6830904,0,1.69146728515625,0.12432861328125,0.12530517578125,9.427480916030534,-146.5648854961832,-43.0,681.1009174311927,-27.522935779816518,-16.3302752293578,,
1760476197.715047,0,1.69158935546875,0.12432861328125,0.125244140625,9.427480916030534,-158.29007633587787,-35.18320610687023,516.6972477064221,-26.788990825688074,-15.688073394495412,,
1760476197.7258346,0,1.6917724609375,0.124267578125,0.1253662109375,9.419847328244275,-183.6946564885496,-43.0,540.1834862385322,-27.15596330275229,-15.321100917431194,,
1760476197.7472205,0,1.69189453125,0.12420654296875,0.12530517578125,9.419847328244275,-164.15267175572518,-19.549618320610687,775.045871559633,-27.79816513761468,-15.77981651376147,,
1760476197.7579434,0,1.69207763671875,0.124267578125,0.12530517578125,9.404580152671755,-152.42748091603053,-41.045801526717554,563.6697247706422,-27.247706422018343,-15.688073394495412,,
1760476197.7793615,0,1.69219970703125,0.124267578125,0.12530517578125,9.435114503816791,-150.4732824427481,-35.18320610687023,681.1009174311927,-27.79816513761468,-15.229357798165138,,
1760476197.8112795,0,1.6923828125,0.124267578125,0.125244140625,9.419847328244275,-166.10687022900763,-19.549618320610687,610.6422018348624,-26.972477064220183,-16.14678899082569,,
1760476197.8220296,0,1.6925048828125,0.12420654296875,0.1253662109375,9.427480916030534,-150.4732824427481,-39.09160305343512,587.1559633027523,-26.880733944954127,-15.77981651376147,,
1760476197.8434594,0,1.69268798828125,0.12432861328125,0.1253662109375,9.419847328244275,-123.1145038167939,-23.45801526717557,704.5871559633028,-27.33944954128441,-15.96330275229358,,
1760476197.854247,0,1.69281005859375,0.124267578125,0.1253662109375,9.404580152671755,-142.65648854961833,-31.27480916030534,469.72477064220186,-27.522935779816518,-15.77981651376147,,
1760476197.8756058,0,1.6929931640625,0.12432861328125,0.12530517578125,9.419847328244275,-154.38167938931298,-44.954198473282446,540.1834862385322,-26.972477064220183,-16.3302752293578,,
1760476197.9074862,0,1.693115234375,0.124267578125,0.1253662109375,9.404580152671755,-142.65648854961833,-29.3206106870229,516.6972477064221,-27.247706422018343,-15.77981651376147,,
1760476197.9182904,0,1.69329833984375,0.124267578125,0.1253662109375,9.435114503816791,-164.15267175572518,-56.6793893129771,822.0183486238533,-27.706422018348626,-15.96330275229358,,
1760476197.9396894,0,1.69342041015625,0.1243896484375,0.1253662109375,9.435114503816791,-146.5648854961832,-39.09160305343512,798.5321100917431,-27.06422018348624,-14.954128440366974,,
1760476197.9716206,0,1.693603515625,0.124267578125,0.125244140625,9.412213740458014,-138.74809160305344,-46.908396946564885,728.0733944954129,-26.788990825688074,-15.321100917431194,,
1760476197.982437,0,1.6937255859375,0.124267578125,0.12530517578125,9.412213740458014,-142.65648854961833,-21.50381679389313,446.2385321100918,-27.33944954128441,-15.688073394495412,,
1760476198.0038595,0,1.69390869140625,0.124267578125,0.125244140625,9.412213740458014,-154.38167938931298,-27.366412213740457,469.72477064220186,-26.972477064220183,-15.321100917431194,,
1760476198.014593,0,1.69403076171875,0.12420654296875,0.12542724609375,9.427480916030534,-168.06106870229007,-41.045801526717554,399.2660550458716,-26.788990825688074,-15.96330275229358,,
1760476198.0360377,0,1.6942138671875,0.124267578125,0.125244140625,9.419847328244275,-156.33587786259542,-54.725190839694655,563.6697247706422,-27.522935779816518,-15.96330275229358,,
1760476198.0572443,0,1.6943359375,0.12420654296875,0.125244140625,9.435114503816791,-166.10687022900763,-29.3206106870229,681.1009174311927,-27.15596330275229,-15.045871559633028,,
1760476198.067911,0,1.69451904296875,0.12432861328125,0.1253662109375,9.427480916030534,-130.93129770992363,-31.27480916030534,751.559633027523,-27.33944954128441,-16.055045871559635,,
1760476198.0892897,0,1.69464111328125,0.12420654296875,0.12542724609375,9.435114503816791,-144.61068702290078,-43.0,516.6972477064221,-27.431192660550455,-14.862385321100918,,
1760476198.100123,0,1.69482421875,0.124267578125,0.12530517578125,9.435114503816791,-136.793893129771,-31.27480916030534,540.1834862385322,-27.06422018348624,-15.59633027522936,,
1760476198.1319935,0,1.6949462890625,0.12432861328125,0.1253662109375,9.404580152671755,-162.19847328244273,-39.09160305343512,399.2660550458716,-27.06422018348624,-15.688073394495412,,
1760476198.1640017,0,1.69512939453125,0.12420654296875,0.1253662109375,9.435114503816791,-144.61068702290078,-7.824427480916031,610.6422018348624,-26.972477064220183,-15.504587155963304,,
1760476198.1748166,0,1.69525146484375,0.12432861328125,0.125244140625,9.419847328244275,-156.33587786259542,-41.045801526717554,469.72477064220186,-26.972477064220183,-15.59633027522936,,
1760476198.1962411,0,1.6954345703125,0.12432861328125,0.1253662109375,9.412213740458014,-166.10687022900763,-74.26717557251908,587.1559633027523,-26.69724770642202,-15.504587155963304,,
1760476198.206963,0,1.695556640625,0.124267578125,0.12530517578125,9.435114503816791,-154.38167938931298,-39.09160305343512,610.6422018348624,-27.15596330275229,-15.321100917431194,,
1760476198.228326,0,1.69573974609375,0.12432861328125,0.1253662109375,9.404580152671755,-160.24427480916032,-66.45038167938931,868.9908256880734,-26.880733944954127,-15.688073394495412,,
1760476198.2602267,0,1.69586181640625,0.12432861328125,0.125244140625,9.419847328244275,-142.65648854961833,-46.908396946564885,751.559633027523,-26.972477064220183,-15.77981651376147,,
1760476198.270967,0,1.696044921875,0.1241455078125,0.1253662109375,9.427480916030534,-138.74809160305344,-25.41221374045801,352.2935779816514,-27.06422018348624,-16.055045871559635,,
1760476198.28186,0,1.6961669921875,0.12432861328125,0.1253662109375,9.404580152671755,-128.9770992366412,-74.26717557251908,657.6146788990826,-27.15596330275229,-15.321100917431194,,
1760476198.3137686,0,1.69635009765625,0.12420654296875,0.12530517578125,9.442748091603054,-185.6488549618321,-17.595419847328245,892.4770642201836,-26.69724770642202,-15.504587155963304,,
1760476198.3244872,0,1.69647216796875,0.12420654296875,0.1253662109375,9.427480916030534,-158.29007633587787,-33.229007633587784,469.72477064220186,-27.06422018348624,-15.321100917431194,,
1760476198.3459322,0,1.6966552734375,0.12432861328125,0.12530517578125,9.419847328244275,-160.24427480916032,-25.41221374045801,587.1559633027523,-27.614678899082566,-15.688073394495412,,
1760476198.356785,0,1.69677734375,0.1241455078125,0.12530517578125,9.419847328244275,-140.70229007633588,-50.81679389312977,868.9908256880734,-27.06422018348624,-16.14678899082569,,
1760476198.3781269,0,1.69696044921875,0.124267578125,0.125244140625,9.442748091603054,-156.33587786259542,-19.549618320610687,657.6146788990826,-27.06422018348624,-15.77981651376147,,
1760476198.4100213,0,1.69708251953125,0.124267578125,0.1253662109375,9.412213740458014,-125.06870229007632,-52.770992366412216,657.6146788990826,-27.06422018348624,-15.871559633027523,,
1760476198.4208412,0,1.697265625,0.12420654296875,0.125244140625,9.412213740458014,-177.8320610687023,-43.0,798.5321100917431,-26.69724770642202,-15.229357798165138,,
1760476198.4422555,0,1.6973876953125,0.124267578125,0.12518310546875,9.412213740458014,-162.19847328244273,-1.9618320610687023,681.1009174311927,-27.431192660550455,-15.504587155963304,,
1760476198.474032,0,1.69757080078125,0.124267578125,0.12542724609375,9.412213740458014,-166.10687022900763,-72.31297709923665,798.5321100917431,-26.880733944954127,-15.59633027522936,,
1760476198.48482,0,1.69769287109375,0.12420654296875,0.12542724609375,9.419847328244275,-175.87786259541986,-70.3587786259542,422.7522935779817,-27.15596330275229,-15.504587155963304,,
1760476198.5062091,0,1.6978759765625,0.124267578125,0.12530517578125,9.412213740458014,-144.61068702290078,-48.86259541984733,751.559633027523,-26.788990825688074,-15.59633027522936,,
1760476198.5169322,0,1.697998046875,0.1243896484375,0.1253662109375,9.412213740458014,-138.74809160305344,-33.229007633587784,704.5871559633028,-27.06422018348624,-16.238532110091743,,
1760476198.538326,0,1.69818115234375,0.1241455078125,0.1253662109375,9.442748091603054,-158.29007633587787,-19.549618320610687,845.5045871559633,-27.522935779816518,-15.59633027522936,,
1760476198.572143,0,1.69830322265625,0.12420654296875,0.1253662109375,9.412213740458014,-154.38167938931298,-19.549618320610687,728.0733944954129,-27.706422018348626,-15.688073394495412,,
1760476198.5825512,0,1.698486328125,0.124267578125,0.1253662109375,9.404580152671755,-115.29770992366412,1.954198473282443,751.559633027523,-26.69724770642202,-15.96330275229358,,
1760476198.5929697,0,1.6986083984375,0.124267578125,0.125244140625,9.427480916030534,-152.42748091603053,-46.908396946564885,281.8348623853211,-27.15596330275229,-15.504587155963304,,
1760476198.6239572,0,1.69879150390625,0.124267578125,0.12542724609375,9.435114503816791,-127.02290076335878,-39.09160305343512,798.5321100917431,-26.69724770642202,-16.14678899082569,,
1760476198.6359532,0,1.69891357421875,0.12420654296875,0.1253662109375,9.404580152671755,-144.61068702290078,-48.86259541984733,610.6422018348624,-26.788990825688074,-15.412844036697248,,
1760476198.6567132,0,1.6990966796875,0.12420654296875,0.12530517578125,9.435114503816791,-160.24427480916032,-35.18320610687023,563.6697247706422,-26.972477064220183,-15.59633027522936,,
1760476198.6680665,0,1.69921875,0.124267578125,0.1253662109375,9.419847328244275,-154.38167938931298,-50.81679389312977,610.6422018348624,-27.431192660550455,-15.688073394495412,,
1760476198.7000768,0,1.69940185546875,0.12420654296875,0.125244140625,9.435114503816791,-160.24427480916032,-11.732824427480915,258.34862385321105,-26.972477064220183,-15.412844036697248,,
1760476198.7208433,0,1.69952392578125,0.12432861328125,0.1253662109375,9.427480916030534,-156.33587786259542,-17.595419847328245,281.8348623853211,-27.06422018348624,-15.688073394495412,,
1760476198.7339802,0,1.69970703125,0.124267578125,0.12530517578125,9.412213740458014,-148.51908396946564,-25.41221374045801,305.3211009174312,-26.788990825688074,-15.96330275229358,,
1760476198.7546735,0,1.6998291015625,0.12432861328125,0.1253662109375,9.435114503816791,-173.9236641221374,-52.770992366412216,845.5045871559633,-27.06422018348624,-16.14678899082569,,
1760476198.7661085,0,1.70001220703125,0.124267578125,0.12548828125,9.412213740458014,-156.33587786259542,-31.27480916030534,634.1284403669725,-26.605504587155966,-15.137614678899084,,
1760476198.78697,0,1.70013427734375,0.12420654296875,0.1253662109375,9.419847328244275,-130.93129770992363,-54.725190839694655,540.1834862385322,-26.972477064220183,-15.045871559633028,,
1760476198.8188498,0,1.7003173828125,0.12420654296875,0.1253662109375,9.412213740458014,-171.96946564885496,-27.366412213740457,1033.3944954128442,-27.247706422018343,-15.688073394495412,,
1760476198.8292956,0,1.700439453125,0.12420654296875,0.12530517578125,9.427480916030534,-175.87786259541986,-25.41221374045801,681.1009174311927,-26.238532110091743,-15.59633027522936,,
1760476198.8500345,0,1.70062255859375,0.12420654296875,0.1253662109375,9.427480916030534,-152.42748091603053,-62.54198473282442,798.5321100917431,-27.431192660550455,-15.871559633027523,,
1760476198.891321,0,1.70074462890625,0.1243896484375,0.1253662109375,9.419847328244275,-175.87786259541986,-52.770992366412216,822.0183486238533,-26.972477064220183,-15.688073394495412,,
1760476198.901825,0,1.700927734375,0.12432861328125,0.1253662109375,9.404580152671755,-156.33587786259542,-25.41221374045801,516.6972477064221,-27.614678899082566,-15.688073394495412,,
1760476198.9227316,0,1.7010498046875,0.124267578125,0.1253662109375,9.412213740458014,-150.4732824427481,-35.18320610687023,634.1284403669725,-27.247706422018343,-15.229357798165138,,
1760476198.93319,0,1.70123291015625,0.12432861328125,0.12530517578125,9.419847328244275,-134.83969465648855,0.0,751.559633027523,-26.69724770642202,-15.504587155963304,,
1760476198.9540062,0,1.70135498046875,0.124267578125,0.1253662109375,9.419847328244275,-152.42748091603053,-54.725190839694655,728.0733944954129,-27.247706422018343,-15.688073394495412,,
1760476198.9853437,0,1.7015380859375,0.1243896484375,0.12542724609375,9.404580152671755,-142.65648854961833,-7.824427480916031,469.72477064220186,-26.972477064220183,-16.14678899082569,,
1760476198.9961233,0,1.70166015625,0.124267578125,0.1253662109375,9.419847328244275,-142.65648854961833,-64.49618320610686,610.6422018348624,-27.79816513761468,-15.59633027522936,,
1760476199.0069697,0,1.70184326171875,0.124267578125,0.12530517578125,9.427480916030534,-156.33587786259542,-25.41221374045801,446.2385321100918,-26.69724770642202,-15.96330275229358,,
1760476199.038936,0,1.70196533203125,0.124267578125,0.12530517578125,9.427480916030534,-185.6488549618321,-109.44274809160304,681.1009174311927,-26.880733944954127,-15.96330275229358,,
1760476199.0497785,0,1.7021484375,0.12420654296875,0.125244140625,9.419847328244275,-162.19847328244273,-44.954198473282446,563.6697247706422,-26.972477064220183,-15.504587155963304,,
1760476199.0710993,0,1.7022705078125,0.124267578125,0.1253662109375,9.404580152671755,-166.10687022900763,-31.27480916030534,704.5871559633028,-27.431192660550455,-15.321100917431194,,
1760476199.103001,0,1.70245361328125,0.1243896484375,0.1253662109375,9.419847328244275,-179.78625954198472,-23.45801526717557,798.5321100917431,-27.247706422018343,-15.77981651376147,,
1760476199.1137657,0,1.70257568359375,0.12420654296875,0.12530517578125,9.427480916030534,-136.793893129771,-23.45801526717557,704.5871559633028,-27.431192660550455,-15.59633027522936,,
1760476199.1351712,0,1.7027587890625,0.12420654296875,0.12530517578125,9.419847328244275,-162.19847328244273,-44.954198473282446,751.559633027523,-26.605504587155966,-16.422018348623855,,
1760476199.1459022,0,1.702880859375,0.12432861328125,0.125244140625,9.435114503816791,-150.4732824427481,-29.3206106870229,305.3211009174312,-26.880733944954127,-15.229357798165138,,
1760476199.1673,0,1.70306396484375,0.12420654296875,0.12530517578125,9.427480916030534,-148.51908396946564,-56.6793893129771,704.5871559633028,-27.247706422018343,-15.229357798165138,,
1760476199.1780183,0,1.70318603515625,0.124267578125,0.12542724609375,9.419847328244275,-148.51908396946564,-48.86259541984733,164.40366972477065,-26.880733944954127,-15.504587155963304,,
1760476199.199368,0,1.703369140625,0.124267578125,0.12530517578125,9.419847328244275,-154.38167938931298,-17.595419847328245,516.6972477064221,-27.33944954128441,-15.77981651376147,,
1760476199.2312334,0,1.7034912109375,0.12420654296875,0.12530517578125,9.427480916030534,-128.9770992366412,-72.31297709923665,657.6146788990826,-26.972477064220183,-15.229357798165138,,
1760476199.241987,0,1.70367431640625,0.124267578125,0.12530517578125,9.412213740458014,-125.06870229007632,-48.86259541984733,399.2660550458716,-26.513761467889907,-15.871559633027523,,
1760476199.2631135,0,1.70379638671875,0.124267578125,0.1253662109375,9.419847328244275,-171.96946564885496,-31.27480916030534,352.2935779816514,-26.880733944954127,-15.77981651376147,,
1760476199.2947805,0,1.7039794921875,0.1243896484375,0.1253662109375,9.435114503816791,-140.70229007633588,-11.732824427480915,915.9633027522935,-26.972477064220183,-15.137614678899084,,
1760476199.3052666,0,1.7041015625,0.12432861328125,0.12530517578125,9.419847328244275,-140.70229007633588,-50.81679389312977,681.1009174311927,-27.522935779816518,-15.412844036697248,,
1760476199.3262813,0,1.70428466796875,0.12432861328125,0.125244140625,9.427480916030534,-152.42748091603053,-15.641221374045802,939.4495412844036,-26.69724770642202,-15.412844036697248,,
1760476199.3369093,0,1.70440673828125,0.12420654296875,0.1253662109375,9.412213740458014,-179.78625954198472,-48.86259541984733,657.6146788990826,-26.972477064220183,-15.96330275229358,,
1760476199.358029,0,1.70458984375,0.124267578125,0.12530517578125,9.442748091603054,-156.33587786259542,-54.725190839694655,634.1284403669725,-26.69724770642202,-16.055045871559635,,
1760476199.3900108,0,1.7047119140625,0.124267578125,0.125244140625,9.427480916030534,-166.10687022900763,-41.045801526717554,399.2660550458716,-26.513761467889907,-15.045871559633028,,
1760476199.4008155,0,1.70489501953125,0.12420654296875,0.12542724609375,9.419847328244275,-148.51908396946564,-1.9618320610687023,657.6146788990826,-26.880733944954127,-15.688073394495412,,
1760476199.4222393,0,1.70501708984375,0.12432861328125,0.125244140625,9.419847328244275,-140.70229007633588,-54.725190839694655,657.6146788990826,-26.605504587155966,-15.229357798165138,,
1760476199.454084,0,1.7052001953125,0.12432861328125,0.12518310546875,9.427480916030534,-164.15267175572518,-72.31297709923665,704.5871559633028,-26.605504587155966,-15.96330275229358,,
1760476199.4646752,0,1.705322265625,0.12420654296875,0.12530517578125,9.419847328244275,-146.5648854961832,-54.725190839694655,352.2935779816514,-26.788990825688074,-15.321100917431194,,
1760476199.4860897,0,1.70550537109375,0.124267578125,0.12530517578125,9.412213740458014,-166.10687022900763,-41.045801526717554,281.8348623853211,-27.15596330275229,-15.412844036697248,,
1760476199.507829,0,1.70562744140625,0.124267578125,0.12542724609375,9.435114503816791,-158.29007633587787,-43.0,610.6422018348624,-27.06422018348624,-15.59633027522936,,
1760476199.5182157,0,1.705810546875,0.12432861328125,0.12542724609375,9.419847328244275,-173.9236641221374,-80.12977099236642,681.1009174311927,-27.614678899082566,-15.504587155963304,,
1760476199.5411887,0,1.7059326171875,0.12420654296875,0.125244140625,9.412213740458014,-150.4732824427481,-27.366412213740457,563.6697247706422,-27.431192660550455,-15.229357798165138,,
1760476199.5515816,0,1.70611572265625,0.124267578125,0.12542724609375,9.427480916030534,-170.01526717557252,-7.824427480916031,446.2385321100918,-26.788990825688074,-15.77981651376147,,
1760476199.5730758,0,1.70623779296875,0.1243896484375,0.1253662109375,9.427480916030534,-170.01526717557252,-23.45801526717557,516.6972477064221,-27.15596330275229,-15.688073394495412,,
1760476199.6048458,0,1.7064208984375,0.12432861328125,0.12518310546875,9.419847328244275,-134.83969465648855,-82.08396946564885,563.6697247706422,-26.972477064220183,-15.871559633027523,,
1760476199.6153233,0,1.70654296875,0.124267578125,0.1253662109375,9.419847328244275,-150.4732824427481,-62.54198473282442,634.1284403669725,-27.247706422018343,-15.688073394495412,,
1760476199.638157,0,1.70672607421875,0.124267578125,0.12542724609375,9.412213740458014,-136.793893129771,-27.366412213740457,751.559633027523,-27.15596330275229,-15.59633027522936,,
1760476199.6691473,0,1.70684814453125,0.12432861328125,0.12542724609375,9.404580152671755,-207.1450381679389,-68.40458015267176,493.2110091743119,-27.15596330275229,-14.954128440366974,,
1760476199.679571,0,1.70703125,0.124267578125,0.125244140625,9.442748091603054,-156.33587786259542,-19.549618320610687,822.0183486238533,-27.522935779816518,-16.14678899082569,,
1760476199.7003431,0,1.7071533203125,0.124267578125,0.12548828125,9.404580152671755,-162.19847328244273,-46.908396946564885,892.4770642201836,-26.972477064220183,-15.688073394495412,,
1760476199.7129807,0,1.70733642578125,0.1243896484375,0.1253662109375,9.419847328244275,-154.38167938931298,-0.0076335877862595,681.1009174311927,-26.69724770642202,-16.055045871559635,,
1760476199.733851,0,1.70745849609375,0.12420654296875,0.12542724609375,9.442748091603054,-150.4732824427481,-41.045801526717554,986.422018348624,-27.706422018348626,-15.504587155963304,,
1760476199.744359,0,1.7076416015625,0.12420654296875,0.1253662109375,9.427480916030534,-156.33587786259542,-21.50381679389313,446.2385321100918,-27.06422018348624,-15.59633027522936,,
1760476199.7653053,0,1.707763671875,0.124267578125,0.12530517578125,9.404580152671755,-146.5648854961832,-31.27480916030534,328.8073394495413,-27.614678899082566,-15.688073394495412,,
1760476199.796587,0,1.70794677734375,0.12432861328125,0.1253662109375,9.412213740458014,-199.32824427480915,-58.63358778625954,258.34862385321105,-27.247706422018343,-15.229357798165138,,
1760476199.807101,0,1.70806884765625,0.12432861328125,0.1253662109375,9.435114503816791,-158.29007633587787,-66.45038167938931,563.6697247706422,-27.15596330275229,-15.321100917431194,,
1760476199.8281052,0,1.708251953125,0.12420654296875,0.1253662109375,9.412213740458014,-173.9236641221374,-29.3206106870229,587.1559633027523,-26.69724770642202,-15.412844036697248,,
1760476199.8598514,0,1.7083740234375,0.12432861328125,0.12548828125,9.419847328244275,-150.4732824427481,-60.58778625954199,751.559633027523,-27.706422018348626,-15.871559633027523,,
1760476199.8703198,0,1.70855712890625,0.1241455078125,0.12542724609375,9.427480916030534,-148.51908396946564,17.587786259541986,610.6422018348624,-26.513761467889907,-15.137614678899084,,
1760476199.8914957,0,1.70867919921875,0.124267578125,0.12530517578125,9.450381679389311,-146.5648854961832,-21.50381679389313,657.6146788990826,-26.69724770642202,-15.321100917431194,,
1760476199.9023125,0,1.7088623046875,0.124267578125,0.12530517578125,9.419847328244275,-128.9770992366412,-23.45801526717557,1033.3944954128442,-27.15596330275229,-15.77981651376147,,
1760476199.9237711,0,1.708984375,0.12420654296875,0.12548828125,9.412213740458014,-154.38167938931298,-9.778625954198471,516.6972477064221,-26.513761467889907,-15.321100917431194,,
1760476199.9556084,0,1.70916748046875,0.124267578125,0.125244140625,9.435114503816791,-152.42748091603053,-60.58778625954199,610.6422018348624,-27.614678899082566,-15.96330275229358,,
1760476199.966419,0,1.70928955078125,0.12432861328125,0.12542724609375,9.435114503816791,-136.793893129771,-41.045801526717554,540.1834862385322,-26.972477064220183,-15.504587155963304,,
1760476199.987855,0,1.70947265625,0.124267578125,0.12530517578125,9.412213740458014,-164.15267175572518,-35.18320610687023,610.6422018348624,-27.15596330275229,-15.504587155963304,,
1760476200.0195916,0,1.7095947265625,0.1241455078125,0.12530517578125,9.419847328244275,-121.16030534351144,-56.6793893129771,681.1009174311927,-27.15596330275229,-15.321100917431194,,
1760476200.030348,0,1.70977783203125,0.12420654296875,0.12542724609375,9.435114503816791,-140.70229007633588,-50.81679389312977,563.6697247706422,-26.972477064220183,-15.96330275229358,,
1760476200.0518508,0,1.70989990234375,0.124267578125,0.12542724609375,9.442748091603054,-166.10687022900763,-3.916030534351145,493.2110091743119,-27.06422018348624,-15.96330275229358,,
1760476200.0837803,0,1.7100830078125,0.124267578125,0.1253662109375,9.435114503816791,-158.29007633587787,-19.549618320610687,634.1284403669725,-27.06422018348624,-15.77981651376147,,
1760476200.0945044,0,1.710205078125,0.124267578125,0.12530517578125,9.412213740458014,-138.74809160305344,-29.3206106870229,775.045871559633,-26.880733944954127,-15.412844036697248,,
1760476200.1159792,0,1.71038818359375,0.12420654296875,0.12542724609375,9.412213740458014,-156.33587786259542,-31.27480916030534,634.1284403669725,-27.522935779816518,-15.321100917431194,,
1760476200.1267617,0,1.71051025390625,0.12432861328125,0.125244140625,9.435114503816791,-132.8854961832061,-39.09160305343512,775.045871559633,-26.42201834862385,-15.504587155963304,,
1760476200.1481326,0,1.710693359375,0.1243896484375,0.12530517578125,9.412213740458014,-148.51908396946564,-48.86259541984733,305.3211009174312,-27.15596330275229,-16.238532110091743,,
1760476200.158932,0,1.7108154296875,0.12432861328125,0.12542724609375,9.412213740458014,-132.8854961832061,-52.770992366412216,634.1284403669725,-26.42201834862385,-15.871559633027523,,
1760476200.1802957,0,1.71099853515625,0.12420654296875,0.12548828125,9.427480916030534,-132.8854961832061,-9.778625954198471,657.6146788990826,-27.06422018348624,-15.412844036697248,,
1760476200.212222,0,1.71112060546875,0.124267578125,0.1253662109375,9.427480916030534,-164.15267175572518,-66.45038167938931,681.1009174311927,-27.247706422018343,-15.229357798165138,,
1760476200.222945,0,1.7113037109375,0.12432861328125,0.1253662109375,9.412213740458014,-162.19847328244273,-21.50381679389313,892.4770642201836,-26.788990825688074,-15.412844036697248,,
1760476200.24437,0,1.71142578125,0.12432861328125,0.1253662109375,9.442748091603054,-144.61068702290078,-44.954198473282446,563.6697247706422,-27.06422018348624,-15.688073394495412,,
1760476200.265734,0,1.71160888671875,0.12420654296875,0.12542724609375,9.412213740458014,-168.06106870229007,-13.687022900763358,751.559633027523,-27.522935779816518,-16.14678899082569,,
1760476200.2765322,0,1.71173095703125,0.12432861328125,0.12530517578125,9.427480916030534,-160.24427480916032,-52.770992366412216,681.1009174311927,-27.15596330275229,-16.14678899082569,,
1760476200.3083897,0,1.7119140625,0.12420654296875,0.1253662109375,9.419847328244275,-152.42748091603053,-21.50381679389313,328.8073394495413,-27.614678899082566,-15.77981651376147,,
1760476200.3188868,0,1.7120361328125,0.1243896484375,0.12518310546875,9.427480916030534,-160.24427480916032,-15.641221374045802,868.9908256880734,-27.15596330275229,-15.871559633027523,,
1760476200.3399465,0,1.71221923828125,0.124267578125,0.1253662109375,9.427480916030534,-125.06870229007632,-68.40458015267176,399.2660550458716,-27.06422018348624,-15.412844036697248,,
1760476200.3718927,0,1.71234130859375,0.124267578125,0.12542724609375,9.396946564885496,-168.06106870229007,-54.725190839694655,516.6972477064221,-26.788990825688074,-16.14678899082569,,
1760476200.382629,0,1.7125244140625,0.124267578125,0.12542724609375,9.396946564885496,-148.51908396946564,-66.45038167938931,234.86238532110093,-26.880733944954127,-16.238532110091743,,
1760476200.404012,0,1.712646484375,0.12432861328125,0.1253662109375,9.419847328244275,-138.74809160305344,-19.549618320610687,469.72477064220186,-26.880733944954127,-15.77981651376147,,
1760476200.4147596,0,1.71282958984375,0.12420654296875,0.12542724609375,9.396946564885496,-160.24427480916032,-58.63358778625954,587.1559633027523,-26.972477064220183,-16.055045871559635,,
1760476200.4361317,0,1.71295166015625,0.124267578125,0.1253662109375,9.419847328244275,-154.38167938931298,-56.6793893129771,563.6697247706422,-26.69724770642202,-15.688073394495412,,
1760476200.457466,0,1.713134765625,0.124267578125,0.125244140625,9.435114503816791,-117.25190839694656,-35.18320610687023,704.5871559633028,-27.247706422018343,-15.871559633027523,,
1760476200.4681976,0,1.7132568359375,0.1241455078125,0.12542724609375,9.404580152671755,-154.38167938931298,-37.13740458015267,728.0733944954129,-26.880733944954127,-15.504587155963304,,
1760476200.4894226,0,1.71343994140625,0.12420654296875,0.12530517578125,9.435114503816791,-146.5648854961832,-44.954198473282446,587.1559633027523,-27.06422018348624,-15.59633027522936,,
1760476200.5213697,0,1.71356201171875,0.1243896484375,0.1253662109375,9.435114503816791,-146.5648854961832,-54.725190839694655,422.7522935779817,-26.972477064220183,-16.055045871559635,,
1760476200.5321484,0,1.7137451171875,0.12420654296875,0.12542724609375,9.412213740458014,-132.8854961832061,-64.49618320610686,610.6422018348624,-27.247706422018343,-15.77981651376147,,
1760476200.553518,0,1.7138671875,0.12420654296875,0.1253662109375,9.427480916030534,-146.5648854961832,-62.54198473282442,587.1559633027523,-28.073394495412845,-15.229357798165138,,
1760476200.5643263,0,1.71405029296875,0.12420654296875,0.1253662109375,9.427480916030534,-144.61068702290078,-17.595419847328245,422.7522935779817,-27.06422018348624,-14.862385321100918,,
1760476200.5858192,0,1.71417236328125,0.1241455078125,0.12530517578125,9.412213740458014,-156.33587786259542,-62.54198473282442,634.1284403669725,-26.972477064220183,-15.412844036697248,,
1760476200.6176355,0,1.71435546875,0.124267578125,0.1253662109375,9.396946564885496,-148.51908396946564,-23.45801526717557,493.2110091743119,-26.880733944954127,-15.77981651376147,,
1760476200.6495569,0,1.7144775390625,0.12432861328125,0.12542724609375,9.419847328244275,-158.29007633587787,-44.954198473282446,610.6422018348624,-27.33944954128441,-15.137614678899084,,
1760476200.6603622,0,1.71466064453125,0.124267578125,0.12530517578125,9.419847328244275,-136.793893129771,0.0,563.6697247706422,-27.06422018348624,-15.137614678899084,,
1760476200.6818664,0,1.71478271484375,0.124267578125,0.125244140625,9.419847328244275,-138.74809160305344,-48.86259541984733,822.0183486238533,-26.880733944954127,-15.59633027522936,,
1760476200.7136402,0,1.7149658203125,0.12432861328125,0.1253662109375,9.412213740458014,-136.793893129771,-43.0,915.9633027522935,-27.247706422018343,-15.412844036697248,,
1760476200.7244327,0,1.715087890625,0.12420654296875,0.1253662109375,9.427480916030534,-152.42748091603053,-62.54198473282442,657.6146788990826,-27.33944954128441,-15.321100917431194,,
1760476200.735294,0,1.71527099609375,0.12420654296875,0.12542724609375,9.412213740458014,-146.5648854961832,-29.3206106870229,704.5871559633028,-27.247706422018343,-15.96330275229358,,
1760476200.746112,0,1.71539306640625,0.12432861328125,0.1253662109375,9.427480916030534,-132.8854961832061,-54.725190839694655,915.9633027522935,-26.605504587155966,-15.504587155963304,,
1760476200.7674034,0,1.715576171875,0.12432861328125,0.12542724609375,9.419847328244275,-166.10687022900763,-27.366412213740457,587.1559633027523,-27.33944954128441,-15.59633027522936,,
1760476200.7782643,0,1.7156982421875,0.12432861328125,0.1253662109375,9.442748091603054,-164.15267175572518,-50.81679389312977,915.9633027522935,-26.880733944954127,-15.77981651376147,,
1760476200.8101037,0,1.71588134765625,0.124267578125,0.1253662109375,9.412213740458014,-148.51908396946564,-21.50381679389313,657.6146788990826,-28.165137614678898,-15.412844036697248,,
1760476200.8314202,0,1.71600341796875,0.12420654296875,0.125244140625,9.404580152671755,-148.51908396946564,-41.045801526717554,422.7522935779817,-27.06422018348624,-15.688073394495412,,
1760476200.8421931,0,1.7161865234375,0.124267578125,0.1253662109375,9.412213740458014,-158.29007633587787,-41.045801526717554,540.1834862385322,-26.880733944954127,-15.59633027522936,,
1760476200.8635008,0,1.71630859375,0.12432861328125,0.12518310546875,9.412213740458014,-152.42748091603053,-60.58778625954199,469.72477064220186,-26.972477064220183,-16.055045871559635,,
1760476200.874345,0,1.71649169921875,0.124267578125,0.1253662109375,9.412213740458014,-171.96946564885496,-13.687022900763358,399.2660550458716,-27.06422018348624,-15.871559633027523,,
1760476200.9062555,0,1.71661376953125,0.1243896484375,0.12542724609375,9.427480916030534,-136.793893129771,-62.54198473282442,469.72477064220186,-26.880733944954127,-15.412844036697248,,
1760476200.9274971,0,1.716796875,0.124267578125,0.12530517578125,9.404580152671755,-164.15267175572518,-87.94656488549619,305.3211009174312,-28.073394495412845,-15.229357798165138,,
1760476200.9382567,0,1.7169189453125,0.12432861328125,0.1253662109375,9.396946564885496,-171.96946564885496,-60.58778625954199,422.7522935779817,-27.431192660550455,-15.688073394495412,,
1760476200.9701085,0,1.71710205078125,0.124267578125,0.12542724609375,9.450381679389311,-187.6030534351145,-41.045801526717554,1197.798165137615,-27.79816513761468,-15.96330275229358,,
1760476200.98093,0,1.71722412109375,0.1243896484375,0.12518310546875,9.427480916030534,-168.06106870229007,-46.908396946564885,822.0183486238533,-26.972477064220183,-16.14678899082569,,
1760476200.9917543,0,1.7174072265625,0.1246337890625,0.125244140625,9.473282442748092,-209.09923664122135,-130.93893129770993,164.40366972477065,-28.34862385321101,-16.88073394495413,,
1760476201.0235758,0,1.717529296875,0.12469482421875,0.125,9.01526717557252,-78.16793893129771,173.9236641221374,493.2110091743119,-28.807339449541285,-16.3302752293578,,
1760476201.0343468,0,1.71771240234375,0.12371826171875,0.12493896484375,9.374045801526718,-177.8320610687023,-39.09160305343512,681.1009174311927,-28.25688073394496,-16.69724770642202,,
1760476201.055682,0,1.71783447265625,0.1239013671875,0.1256103515625,9.206106870229007,-115.29770992366412,85.98473282442748,446.2385321100918,-28.807339449541285,-16.88073394495413,,
1760476201.087414,0,1.718017578125,0.1241455078125,0.12530517578125,9.419847328244275,-156.33587786259542,-31.27480916030534,469.72477064220186,-27.706422018348626,-17.06422018348624,,
1760476201.098158,0,1.7181396484375,0.12481689453125,0.125,9.389312977099236,-134.83969465648855,-15.641221374045802,634.1284403669725,-28.25688073394496,-17.24770642201835,,
1760476201.1215267,0,1.71832275390625,0.12420654296875,0.125244140625,9.34351145038168,-181.7404580152672,-89.90076335877863,493.2110091743119,-29.72477064220184,-16.3302752293578,,
1760476201.156184,0,1.71844482421875,0.12432861328125,0.12548828125,9.50381679389313,-197.3740458015267,-85.99236641221374,258.34862385321105,-28.25688073394496,-17.06422018348624,,
1760476201.1666572,0,1.7186279296875,0.12408447265625,0.12554931640625,9.412213740458014,-162.19847328244273,-17.595419847328245,728.0733944954129,-28.623853211009177,-16.14678899082569,,
1760476201.1771264,0,1.71875,0.124267578125,0.1253662109375,9.396946564885496,-148.51908396946564,-50.81679389312977,634.1284403669725,-28.073394495412845,-17.06422018348624,,
1760476201.1874864,0,1.71893310546875,0.12408447265625,0.12518310546875,9.442748091603054,-156.33587786259542,-27.366412213740457,540.1834862385322,-28.165137614678898,-17.24770642201835,,
1760476201.2081544,0,1.71905517578125,0.1241455078125,0.12530517578125,9.381679389312977,-148.51908396946564,-17.595419847328245,140.91743119266056,-27.33944954128441,-16.972477064220186,,
1760476201.2390983,0,1.71923828125,0.12432861328125,0.12542724609375,9.488549618320612,-185.6488549618321,-50.81679389312977,681.1009174311927,-28.25688073394496,-16.88073394495413,,
1760476201.2700613,0,1.7193603515625,0.12432861328125,0.125244140625,9.427480916030534,-144.61068702290078,-3.916030534351145,798.5321100917431,-27.614678899082566,-17.06422018348624,,
1760476201.280415,0,1.71954345703125,0.12432861328125,0.12542724609375,9.435114503816791,-146.5648854961832,-44.954198473282446,704.5871559633028,-28.623853211009177,-16.055045871559635,,
1760476201.3011,0,1.71966552734375,0.1243896484375,0.1253662109375,9.427480916030534,-142.65648854961833,-74.26717557251908,657.6146788990826,-28.53211009174312,-16.88073394495413,,
1760476201.3115385,0,1.7198486328125,0.12420654296875,0.12542724609375,9.396946564885496,-154.38167938931298,-46.908396946564885,751.559633027523,-28.073394495412845,-16.88073394495413,,
1760476201.3425176,0,1.719970703125,0.12420654296875,0.12530517578125,9.435114503816791,-146.5648854961832,-33.229007633587784,681.1009174311927,-28.165137614678898,-16.972477064220186,,
1760476201.352862,0,1.72015380859375,0.1241455078125,0.12530517578125,9.396946564885496,-144.61068702290078,-80.12977099236642,187.88990825688077,-27.614678899082566,-16.51376146788991,,
1760476201.3735223,0,1.72027587890625,0.124267578125,0.1253662109375,9.427480916030534,-150.4732824427481,-15.641221374045802,328.8073394495413,-28.807339449541285,-17.431192660550458,,
1760476201.3839278,0,1.720458984375,0.12445068359375,0.125244140625,9.419847328244275,-121.16030534351144,-48.86259541984733,751.559633027523,-28.807339449541285,-16.605504587155963,,
1760476201.4149036,0,1.7205810546875,0.1243896484375,0.12542724609375,9.427480916030534,-132.8854961832061,-15.641221374045802,775.045871559633,-28.71559633027523,-16.972477064220186,,
1760476201.4457994,0,1.72076416015625,0.124267578125,0.1253662109375,9.419847328244275,-160.24427480916032,-60.58778625954199,258.34862385321105,-28.440366972477065,-16.69724770642202,,
1760476201.456105,0,1.72088623046875,0.124267578125,0.1253662109375,9.412213740458014,-150.4732824427481,-31.27480916030534,446.2385321100918,-27.981651376146782,-16.972477064220186,,
1760476201.4664466,0,1.7210693359375,0.124267578125,0.12530517578125,9.404580152671755,-160.24427480916032,-35.18320610687023,681.1009174311927,-28.623853211009177,-16.605504587155963,,
1760476201.4973707,0,1.72119140625,0.1240234375,0.12518310546875,9.427480916030534,-136.793893129771,-31.27480916030534,775.045871559633,-28.9908256880734,-16.605504587155963,,
1760476201.5077844,0,1.72137451171875,0.12420654296875,0.12530517578125,9.419847328244275,-136.793893129771,-23.45801526717557,868.9908256880734,-28.899082568807337,-16.88073394495413,,
1760476201.5284765,0,1.72149658203125,0.12432861328125,0.1253662109375,9.435114503816791,-166.10687022900763,-58.63358778625954,540.1834862385322,-28.34862385321101,-16.972477064220186,,
1760476201.5388513,0,1.7216796875,0.1243896484375,0.12542724609375,9.419847328244275,-162.19847328244273,-29.3206106870229,634.1284403669725,-28.073394495412845,-16.69724770642202,,
1760476201.569817,0,1.7218017578125,0.124267578125,0.12542724609375,9.412213740458014,-148.51908396946564,-21.50381679389313,446.2385321100918,-28.440366972477065,-17.24770642201835,,
1760476201.6007252,0,1.72198486328125,0.1241455078125,0.1253662109375,9.427480916030534,-140.70229007633588,-46.908396946564885,516.6972477064221,-28.073394495412845,-16.51376146788991,,
1760476201.6110876,0,1.72210693359375,0.1241455078125,0.125244140625,9.396946564885496,-164.15267175572518,-5.870229007633588,375.7798165137615,-28.899082568807337,-16.88073394495413,,
1760476201.631814,0,1.7222900390625,0.12420654296875,0.125244140625,9.404580152671755,-162.19847328244273,-44.954198473282446,728.0733944954129,-28.53211009174312,-16.14678899082569,,
1760476201.6421864,0,1.722412109375,0.12432861328125,0.125244140625,9.404580152671755,-177.8320610687023,33.221374045801525,775.045871559633,-28.073394495412845,-17.06422018348624,,
1760476201.662941,0,1.72259521484375,0.12432861328125,0.1253662109375,9.435114503816791,-197.3740458015267,-54.725190839694655,728.0733944954129,-28.165137614678898,-16.605504587155963,,
1760476201.6940074,0,1.72271728515625,0.124267578125,0.1253662109375,9.427480916030534,-158.29007633587787,-54.725190839694655,422.7522935779817,-28.073394495412845,-17.61467889908257,,
1760476201.7044487,0,1.722900390625,0.124267578125,0.12530517578125,9.419847328244275,-152.42748091603053,-58.63358778625954,728.0733944954129,-28.25688073394496,-16.972477064220186,,
1760476201.7252753,0,1.7230224609375,0.12420654296875,0.1253662109375,9.404580152671755,-125.06870229007632,-50.81679389312977,704.5871559633028,-29.174311926605505,-16.238532110091743,,
1760476201.746003,0,1.72320556640625,0.1241455078125,0.1253662109375,9.404580152671755,-123.1145038167939,-48.86259541984733,399.2660550458716,-28.25688073394496,-16.88073394495413,,
1760476201.7563896,0,1.72332763671875,0.12420654296875,0.1253662109375,9.427480916030534,-156.33587786259542,-37.13740458015267,751.559633027523,-27.889908256880737,-16.88073394495413,,
1760476201.7770736,0,1.7235107421875,0.12432861328125,0.12542724609375,9.419847328244275,-171.96946564885496,-33.229007633587784,563.6697247706422,-28.71559633027523,-16.88073394495413,,
1760476201.8085542,0,1.7236328125,0.12420654296875,0.1253662109375,9.435114503816791,-130.93129770992363,-56.6793893129771,751.559633027523,-28.165137614678898,-16.88073394495413,,
1760476201.8397284,0,1.72381591796875,0.124267578125,0.125244140625,9.435114503816791,-152.42748091603053,-21.50381679389313,446.2385321100918,-28.53211009174312,-16.788990825688074,,
1760476201.850097,0,1.72393798828125,0.124267578125,0.1253662109375,9.435114503816791,-175.87786259541986,-19.549618320610687,610.6422018348624,-28.623853211009177,-16.788990825688074,,
1760476201.8604531,0,1.72412109375,0.1241455078125,0.12530517578125,9.435114503816791,-125.06870229007632,-25.41221374045801,469.72477064220186,-28.34862385321101,-16.422018348623855,,
1760476201.8811662,0,1.7242431640625,0.12420654296875,0.12542724609375,9.427480916030534,-160.24427480916032,-31.27480916030534,728.0733944954129,-28.440366972477065,-16.972477064220186,,
1760476201.9121482,0,1.72442626953125,0.12420654296875,0.12530517578125,9.435114503816791,-123.1145038167939,-64.49618320610686,1009.908256880734,-27.706422018348626,-16.422018348623855,,
1760476201.9225743,0,1.72454833984375,0.12432861328125,0.12530517578125,9.412213740458014,-140.70229007633588,-74.26717557251908,540.1834862385322,-28.073394495412845,-16.88073394495413,,
1760476201.943276,0,1.7247314453125,0.124267578125,0.12542724609375,9.419847328244275,-130.93129770992363,-50.81679389312977,798.5321100917431,-28.25688073394496,-16.88073394495413,,
1760476201.9537184,0,1.724853515625,0.12420654296875,0.12518310546875,9.419847328244275,-146.5648854961832,-15.641221374045802,775.045871559633,-28.440366972477065,-16.972477064220186,,
1760476201.9746249,0,1.72503662109375,0.124267578125,0.12518310546875,9.412213740458014,-140.70229007633588,-25.41221374045801,540.1834862385322,-28.807339449541285,-16.055045871559635,,
1760476202.0057836,0,1.72515869140625,0.1241455078125,0.12530517578125,9.404580152671755,-154.38167938931298,-39.09160305343512,399.2660550458716,-28.25688073394496,-16.788990825688074,,
1760476202.0162363,0,1.725341796875,0.124267578125,0.125244140625,9.419847328244275,-164.15267175572518,-17.595419847328245,610.6422018348624,-28.440366972477065,-17.431192660550458,,
1760476202.0371246,0,1.7254638671875,0.12432861328125,0.125244140625,9.427480916030534,-144.61068702290078,-70.3587786259542,563.6697247706422,-28.34862385321101,-16.972477064220186,,
1760476202.0687711,0,1.72564697265625,0.12420654296875,0.12530517578125,9.442748091603054,-146.5648854961832,-43.0,845.5045871559633,-28.53211009174312,-16.69724770642202,,
1760476202.0793765,0,1.72576904296875,0.124267578125,0.12542724609375,9.419847328244275,-134.83969465648855,-50.81679389312977,375.7798165137615,-28.53211009174312,-16.972477064220186,,
1760476202.1007123,0,1.7259521484375,0.124267578125,0.12530517578125,9.404580152671755,-115.29770992366412,-44.954198473282446,751.559633027523,-27.981651376146782,-17.06422018348624,,
1760476202.1114855,0,1.72607421875,0.124267578125,0.12530517578125,9.442748091603054,-140.70229007633588,-66.45038167938931,634.1284403669725,-28.34862385321101,-16.972477064220186,,
1760476202.1329558,0,1.72625732421875,0.12420654296875,0.12530517578125,9.412213740458014,-146.5648854961832,-56.6793893129771,422.7522935779817,-27.889908256880737,-16.605504587155963,,
1760476202.1647415,0,1.72637939453125,0.124267578125,0.1253662109375,9.412213740458014,-138.74809160305344,-41.045801526717554,493.2110091743119,-28.623853211009177,-17.431192660550458,,
1760476202.1755023,0,1.7265625,0.124267578125,0.12530517578125,9.435114503816791,-181.7404580152672,-52.770992366412216,587.1559633027523,-27.889908256880737,-16.788990825688074,,
1760476202.1967876,0,1.7266845703125,0.12420654296875,0.1253662109375,9.419847328244275,-191.5114503816794,-50.81679389312977,775.045871559633,-28.440366972477065,-17.431192660550458,,
1760476202.228526,0,1.72686767578125,0.12420654296875,0.1253662109375,9.427480916030534,-156.33587786259542,-25.41221374045801,493.2110091743119,-28.34862385321101,-17.24770642201835,,
1760476202.2392368,0,1.72698974609375,0.12420654296875,0.12548828125,9.404580152671755,-152.42748091603053,-29.3206106870229,681.1009174311927,-28.073394495412845,-16.51376146788991,,
1760476202.260566,0,1.7271728515625,0.12432861328125,0.12548828125,9.419847328244275,-95.7557251908397,-37.13740458015267,915.9633027522935,-29.26605504587156,-16.422018348623855,,
1760476202.271303,0,1.727294921875,0.124267578125,0.12530517578125,9.419847328244275,-160.24427480916032,-19.549618320610687,516.6972477064221,-29.08256880733945,-16.972477064220186,,
1760476202.28217,0,1.72747802734375,0.12420654296875,0.125244140625,9.427480916030534,-150.4732824427481,-37.13740458015267,422.7522935779817,-28.71559633027523,-17.522935779816514,,
1760476202.314358,0,1.72760009765625,0.12420654296875,0.125244140625,9.412213740458014,-170.01526717557252,-31.27480916030534,822.0183486238533,-27.889908256880737,-17.155963302752294,,
1760476202.3250918,0,1.727783203125,0.12432861328125,0.1253662109375,9.442748091603054,-138.74809160305344,-58.63358778625954,446.2385321100918,-28.34862385321101,-17.522935779816514,,
1760476202.3465292,0,1.7279052734375,0.12420654296875,0.1253662109375,9.427480916030534,-154.38167938931298,-33.229007633587784,305.3211009174312,-28.623853211009177,-16.422018348623855,,
1760476202.3783846,0,1.72808837890625,0.12408447265625,0.12530517578125,9.427480916030534,-160.24427480916032,-27.366412213740457,892.4770642201836,-28.623853211009177,-16.69724770642202,,
1760476202.3892288,0,1.72821044921875,0.124267578125,0.1253662109375,9.427480916030534,-117.25190839694656,-17.595419847328245,469.72477064220186,-28.71559633027523,-16.88073394495413,,
1760476202.4107296,0,1.7283935546875,0.124267578125,0.1253662109375,9.419847328244275,-191.5114503816794,-48.86259541984733,516.6972477064221,-28.165137614678898,-17.24770642201835,,
1760476202.421502,0,1.728515625,0.12420654296875,0.1253662109375,9.427480916030534,-154.38167938931298,-11.732824427480915,422.7522935779817,-28.440366972477065,-16.972477064220186,,
1760476202.4426706,0,1.72869873046875,0.12420654296875,0.12530517578125,9.412213740458014,-140.70229007633588,-41.045801526717554,681.1009174311927,-28.440366972477065,-17.155963302752294,,
1760476202.474409,0,1.72882080078125,0.124267578125,0.12530517578125,9.404580152671755,-148.51908396946564,-44.954198473282446,634.1284403669725,-28.440366972477065,-17.706422018348626,,
1760476202.4852436,0,1.72900390625,0.12432861328125,0.12548828125,9.419847328244275,-166.10687022900763,-78.17557251908397,516.6972477064221,-28.073394495412845,-16.605504587155963,,
1760476202.506499,0,1.7291259765625,0.124267578125,0.1253662109375,9.435114503816791,-173.9236641221374,-48.86259541984733,657.6146788990826,-28.073394495412845,-16.605504587155963,,
1760476202.5171545,0,1.72930908203125,0.124267578125,0.1253662109375,9.419847328244275,-148.51908396946564,9.770992366412214,516.6972477064221,-29.174311926605505,-16.69724770642202,,
1760476202.538169,0,1.72943115234375,0.12432861328125,0.125244140625,9.412213740458014,-144.61068702290078,-46.908396946564885,634.1284403669725,-28.165137614678898,-17.24770642201835,,
1760476202.569621,0,1.7296142578125,0.12432861328125,0.12518310546875,9.435114503816791,-156.33587786259542,-44.954198473282446,751.559633027523,-28.53211009174312,-16.88073394495413,,
1760476202.580172,0,1.729736328125,0.124267578125,0.12530517578125,9.404580152671755,-142.65648854961833,-31.27480916030534,587.1559633027523,-28.165137614678898,-16.88073394495413,,
1760476202.6014495,0,1.72991943359375,0.124267578125,0.125244140625,9.419847328244275,-160.24427480916032,-52.770992366412216,657.6146788990826,-29.08256880733945,-16.69724770642202,,
1760476202.6330411,0,1.73004150390625,0.1241455078125,0.12542724609375,9.435114503816791,-134.83969465648855,-54.725190839694655,563.6697247706422,-28.807339449541285,-16.788990825688074,,
1760476202.6436214,0,1.730224609375,0.12420654296875,0.1253662109375,9.412213740458014,-162.19847328244273,-13.687022900763358,540.1834862385322,-27.981651376146782,-16.88073394495413,,
1760476202.6649635,0,1.7303466796875,0.12420654296875,0.1253662109375,9.427480916030534,-132.8854961832061,-60.58778625954199,892.4770642201836,-28.623853211009177,-16.972477064220186,,
1760476202.6758535,0,1.73052978515625,0.12432861328125,0.125244140625,9.419847328244275,-121.16030534351144,-19.549618320610687,422.7522935779817,-28.25688073394496,-17.06422018348624,,
1760476202.6968486,0,1.73065185546875,0.1241455078125,0.12530517578125,9.419847328244275,-156.33587786259542,-21.50381679389313,868.9908256880734,-28.623853211009177,-16.88073394495413,,
1760476202.7284906,0,1.7308349609375,0.124267578125,0.1253662109375,9.427480916030534,-168.06106870229007,-54.725190839694655,540.1834862385322,-28.440366972477065,-16.51376146788991,,
1760476202.739216,0,1.73095703125,0.124267578125,0.12530517578125,9.389312977099236,-136.793893129771,-39.09160305343512,704.5871559633028,-28.71559633027523,-17.155963302752294,,
1760476202.760492,0,1.73114013671875,0.124267578125,0.125244140625,9.435114503816791,-128.9770992366412,-33.229007633587784,657.6146788990826,-27.981651376146782,-16.88073394495413,,
1760476202.792383,0,1.73126220703125,0.12420654296875,0.12530517578125,9.412213740458014,-171.96946564885496,0.0,728.0733944954129,-27.79816513761468,-17.61467889908257,,
1760476202.8031375,0,1.7314453125,0.12432861328125,0.125244140625,9.419847328244275,-154.38167938931298,-19.549618320610687,704.5871559633028,-29.08256880733945,-16.788990825688074,,
1760476202.8244357,0,1.7315673828125,0.124267578125,0.1253662109375,9.412213740458014,-189.55725190839692,-27.366412213740457,399.2660550458716,-28.807339449541285,-16.51376146788991,,
1760476202.8562653,0,1.73175048828125,0.124267578125,0.125244140625,9.412213740458014,-138.74809160305344,-56.6793893129771,587.1559633027523,-28.073394495412845,-16.51376146788991,,
