timestamp,packet_id,accel_x,accel_y,accel_z,gyro_x,gyro_y,gyro_z,mag_x,mag_y,mag_z,battery,temperature
1760467422.3714492,0,151.20336263736266,73.57859340659341,-152.7054065934066,1.9465648854961832,211.23664122137404,-22.900763358778622,-116.78899082568807,-1056.2385321100917,0.3669724770642202,,
1760467422.384981,1,156.615032967033,80.93789010989012,-141.66646153846156,1.9465648854961832,216.12213740458012,-20.946564885496183,-93.30275229357798,-1032.7522935779816,0.3669724770642202,,
1760467422.3955262,2,152.8132087912088,80.93789010989012,-145.34610989010991,1.9465648854961832,221.00763358778627,-18.99236641221374,-116.78899082568807,-1032.7522935779816,0.3669724770642202,,
1760467422.4069653,3,147.37279120879123,97.4963076923077,-149.02575824175824,1.9465648854961832,225.8931297709924,-22.900763358778622,-140.27522935779817,-1056.2385321100917,0.3669724770642202,,
1760467422.419,4,160.25874725274724,82.7777142857143,-147.18593406593408,1.9465648854961832,230.77862595419847,-18.99236641221374,-116.78899082568807,-1032.7522935779816,0.3669724770642202,,
1760467422.42952,5,156.47848351648352,60.69982417582418,-147.18593406593408,1.9465648854961832,235.66412213740455,-20.946564885496183,-69.81651376146789,-1032.7522935779816,0.3669724770642202,,
1760467422.4431148,6,152.921010989011,71.73876923076924,-156.38505494505495,1.9465648854961832,240.54961832061068,-20.946564885496183,-93.30275229357798,-1079.7247706422015,0.3669724770642202,,
1760467422.4535265,7,156.60784615384617,71.73876923076924,-143.50628571428572,1.9465648854961832,245.4351145038168,-18.99236641221374,-116.78899082568807,-1032.7522935779816,0.3669724770642202,,
1760467422.464041,8,0.0359340659340659,162.09138461538464,80.93789010989012,-156.33587786259542,1.9465648854961832,-249.95419847328245,-251.74311926605503,-140.27522935779817,-1103.2110091743118,,
1760467422.4759984,9,-0.6180659340659341,1.6673406593406594,163.95995604395603,91.83206106870227,-158.29007633587787,1.9465648854961832,-2945.321100917431,-275.22935779816515,-140.27522935779817,,
1760467422.4864194,10,-0.5318241758241758,1.7607692307692309,152.9281978021978,82.06106870229007,-148.51908396946564,1.9465648854961832,-2886.605504587156,-275.22935779816515,-69.81651376146789,,
1760467422.496971,11,-0.539010989010989,1.617032967032967,162.19918681318683,82.06106870229007,-156.33587786259542,1.9465648854961832,-2827.8899082568805,-298.7155963302752,-116.78899082568807,,
1760467422.5079162,12,-0.5605714285714286,1.6960879120879122,160.2803076923077,78.1526717557252,-162.19847328244273,1.9465648854961832,-2769.174311926605,-251.74311926605503,-116.78899082568807,,
1760467422.5298667,13,-0.6324395604395605,1.7895164835164834,158.39736263736265,87.92366412213741,-164.15267175572518,1.9465648854961832,-2710.45871559633,-204.77064220183485,-140.27522935779817,,
1760467422.5404289,14,-0.5965054945054945,1.7104615384615385,154.73927472527475,87.92366412213741,-160.24427480916032,1.9465648854961832,-2651.7431192660547,-275.22935779816515,-140.27522935779817,,
1760467422.571796,15,-0.4527692307692308,1.7535824175824175,158.39736263736265,103.55725190839696,-152.42748091603053,1.9465648854961832,-2593.02752293578,-275.22935779816515,-116.78899082568807,,
1760467422.5822413,16,-0.5893186813186814,1.6960879120879122,158.382989010989,91.83206106870227,-158.29007633587787,1.9465648854961832,-2534.3119266055046,-204.77064220183485,-93.30275229357798,,
1760467422.6031291,17,1.3583076923076924,0.0215604395604395,167.59648351648352,84.01526717557252,-144.61068702290078,1.9465648854961832,-2475.5963302752293,-204.77064220183485,-140.27522935779817,,
1760467422.6340408,18,-0.5893186813186814,1.724835164835165,167.6970989010989,66.42748091603053,-152.42748091603053,1.9465648854961832,-2416.880733944954,-275.22935779816515,-93.30275229357798,,
1760467422.6444285,19,-0.5246373626373626,1.7176483516483516,150.96619780219785,84.01526717557252,-150.4732824427481,1.9465648854961832,-2358.1651376146788,-251.74311926605503,-116.78899082568807,,
1760467422.6650574,20,-0.5102637362637363,1.6385934065934065,160.2803076923077,82.06106870229007,-150.4732824427481,1.9465648854961832,-2299.4495412844035,-298.7155963302752,-69.81651376146789,,
1760467422.6959815,21,-0.5246373626373626,1.6601538461538463,156.56472527472528,101.6030534351145,-152.42748091603053,1.9465648854961832,-2240.733944954128,-204.77064220183485,-69.81651376146789,,
1760467422.706483,22,-0.4527692307692308,1.6601538461538463,162.1273186813187,82.06106870229007,-154.38167938931298,1.9465648854961832,-2182.018348623853,-251.74311926605503,-116.78899082568807,,
1760467422.7273262,23,-0.6252527472527473,1.724835164835165,162.11294505494507,84.01526717557252,-160.24427480916032,1.9465648854961832,-2123.3027522935777,-251.74311926605503,-140.27522935779817,,
1760467422.7378204,24,-0.5461978021978022,1.7463956043956046,169.4434945054945,76.19847328244275,-148.51908396946564,1.9465648854961832,-2064.5871559633024,-228.2568807339449,-93.30275229357798,,
1760467422.7587583,25,-0.6180659340659341,1.6960879120879122,158.41173626373626,74.2442748091603,-162.19847328244273,1.9465648854961832,-2005.8715596330276,-228.2568807339449,-69.81651376146789,,
1760467422.7904806,26,-0.5533846153846155,1.7392087912087917,158.382989010989,85.96946564885496,-150.4732824427481,1.9465648854961832,-1947.1559633027523,-251.74311926605503,-140.27522935779817,,
1760467422.8011043,27,-0.6683736263736263,1.6745274725274726,158.43329670329672,87.92366412213741,-144.61068702290078,1.9465648854961832,-1888.4403669724768,-228.2568807339449,-163.76146788990826,,
1760467422.8219924,28,-0.5893186813186814,1.7895164835164834,158.41173626373626,80.10687022900764,-148.51908396946564,1.9465648854961832,-1829.724770642202,-228.2568807339449,-69.81651376146789,,
1760467422.8325405,29,-0.539010989010989,1.617032967032967,145.59046153846154,89.87786259541984,-156.33587786259542,1.9465648854961832,-1771.0091743119267,-251.74311926605503,-93.30275229357798,,
1760467422.8538594,30,-0.4887032967032967,1.7535824175824175,174.96296703296704,72.29007633587786,-146.5648854961832,1.9465648854961832,-1712.2935779816517,-275.22935779816515,-140.27522935779817,,
1760467422.8854873,31,-0.539010989010989,1.6529670329670332,160.19406593406592,76.19847328244275,-146.5648854961832,1.9465648854961832,-1653.5779816513764,-275.22935779816515,-140.27522935779817,,
1760467422.896037,32,-0.4887032967032967,1.7895164835164834,167.64679120879123,93.78625954198472,-148.51908396946564,1.9465648854961832,-1594.8623853211009,-251.74311926605503,-93.30275229357798,,
1760467422.9172175,33,-0.5102637362637363,1.7032747252747251,156.615032967033,87.92366412213741,-148.51908396946564,1.9465648854961832,-1536.1467889908256,-228.2568807339449,-140.27522935779817,,
1760467422.9278517,34,-0.539010989010989,1.5092307692307694,141.73832967032968,87.92366412213741,-150.4732824427481,1.9465648854961832,-1477.4311926605503,-275.22935779816515,-22.84403669724771,,
1760467422.9490402,35,-0.6468131868131869,1.7751428571428571,158.33268131868132,85.96946564885496,-154.38167938931298,1.9465648854961832,-1418.7155963302753,-275.22935779816515,-116.78899082568807,,
1760467422.980766,36,-0.6180659340659341,1.6817142857142855,163.95276923076926,78.1526717557252,-144.61068702290078,1.9465648854961832,-1360.0,-228.2568807339449,-116.78899082568807,,
1760467422.991446,37,-0.5533846153846155,1.7463956043956046,167.62523076923077,84.01526717557252,-162.19847328244273,1.9465648854961832,-1301.2844036697247,-228.2568807339449,-116.78899082568807,,
1760467423.0129242,38,-0.6180659340659341,1.7032747252747251,158.39736263736265,84.01526717557252,-152.42748091603053,1.9465648854961832,-1242.5688073394494,-251.74311926605503,-93.30275229357798,,
1760467423.0444496,39,-0.5605714285714286,1.6960879120879122,171.30487912087912,101.6030534351145,-144.61068702290078,1.9465648854961832,-1183.8532110091742,-228.2568807339449,-69.81651376146789,,
1760467423.055206,40,-0.5246373626373626,1.767956043956044,162.1776263736264,89.87786259541984,-152.42748091603053,1.9465648854961832,-1125.1376146788991,-298.7155963302752,-116.78899082568807,,
1760467423.076289,41,-0.5821318681318681,1.5810989010989014,165.81415384615386,80.10687022900764,-152.42748091603053,1.9465648854961832,-1066.422018348624,-251.74311926605503,-93.30275229357798,,
1760467423.0869658,42,-0.5030769230769231,1.6745274725274726,160.20125274725274,84.01526717557252,-148.51908396946564,1.9465648854961832,-1007.7064220183486,-228.2568807339449,-93.30275229357798,,
1760467423.108135,43,-0.4815164835164835,1.6457802197802198,165.7854065934066,91.83206106870227,-150.4732824427481,1.9465648854961832,-948.9908256880732,-251.74311926605503,-116.78899082568807,,
1760467423.1398666,44,-0.539010989010989,1.5451648351648353,167.61085714285716,87.92366412213741,-142.65648854961833,1.9465648854961832,-890.2752293577981,-251.74311926605503,-93.30275229357798,,
1760467423.1505125,45,-0.5893186813186814,1.7607692307692309,156.5144175824176,91.83206106870227,-144.61068702290078,1.9465648854961832,-831.5596330275229,-204.77064220183485,-93.30275229357798,,
1760467423.1716094,46,-0.5246373626373626,1.6529670329670332,171.2976923076923,78.1526717557252,-150.4732824427481,1.9465648854961832,-772.8440366972477,-251.74311926605503,-140.27522935779817,,
1760467423.203262,47,-0.459956043956044,1.7463956043956046,162.10575824175828,89.87786259541984,-146.5648854961832,1.9465648854961832,-714.1284403669725,-251.74311926605503,-69.81651376146789,,
1760467423.2139,48,-0.4671428571428571,1.7463956043956046,160.26593406593406,76.19847328244275,-156.33587786259542,1.9465648854961832,-655.4128440366973,-228.2568807339449,-93.30275229357798,,
1760467423.2349908,49,-0.574945054945055,1.7463956043956046,162.15606593406596,80.10687022900764,-150.4732824427481,1.9465648854961832,-596.697247706422,-228.2568807339449,-116.78899082568807,,
1760467423.245741,50,-0.459956043956044,1.8182637362637364,163.8162197802198,84.01526717557252,-148.51908396946564,1.9465648854961832,-537.9816513761468,-251.74311926605503,-140.27522935779817,,
1760467423.2669172,51,-0.4815164835164835,1.7104615384615385,160.25874725274724,93.78625954198472,-150.4732824427481,1.9465648854961832,-479.2660550458716,-251.74311926605503,-93.30275229357798,,
1760467423.298439,52,-0.6108791208791209,1.6026593406593408,163.9743296703297,82.06106870229007,-150.4732824427481,1.9465648854961832,-420.55045871559633,-275.22935779816515,-93.30275229357798,,
1760467423.3090854,53,-0.7258681318681319,1.7320219780219783,160.21562637362638,85.96946564885496,-154.38167938931298,1.9465648854961832,-361.8348623853211,-251.74311926605503,-93.30275229357798,,
1760467423.330274,54,-0.6180659340659341,1.5236043956043956,154.7752087912088,78.1526717557252,-150.4732824427481,1.9465648854961832,-303.11926605504584,-275.22935779816515,-116.78899082568807,,
1760467423.361512,55,-0.6468131868131869,1.6673406593406594,156.615032967033,91.83206106870227,-146.5648854961832,1.9465648854961832,-244.40366972477065,-275.22935779816515,-93.30275229357798,,
1760467423.3719895,56,-0.5174505494505495,1.573912087912088,165.7422857142857,85.96946564885496,-154.38167938931298,1.9465648854961832,-185.68807339449543,-228.2568807339449,-93.30275229357798,,
1760467423.3930695,57,-0.4455824175824175,1.688901098901099,163.92402197802198,95.74045801526718,-144.61068702290078,1.9465648854961832,-126.9724770642202,-228.2568807339449,-93.30275229357798,,
1760467423.4038763,58,-0.6180659340659341,1.688901098901099,158.3758021978022,85.96946564885496,-152.42748091603053,1.9465648854961832,-68.25688073394495,-228.2568807339449,-69.81651376146789,,
1760467423.424924,59,-0.5174505494505495,1.7104615384615385,163.92402197802198,84.01526717557252,-152.42748091603053,1.9465648854961832,-9.541284403669724,-275.22935779816515,-116.78899082568807,,
1760467423.446179,60,-0.5965054945054945,1.8326373626373629,160.22281318681317,80.10687022900764,-152.42748091603053,1.9465648854961832,49.17431192660551,-228.16513761467888,-93.30275229357798,,
1760467423.4569182,61,-0.5893186813186814,1.6385934065934065,165.76384615384617,97.6946564885496,-146.5648854961832,1.9465648854961832,107.88990825688074,-275.13761467889907,-69.81651376146789,,
1760467423.4883635,62,-0.5965054945054945,1.6745274725274726,163.95995604395603,97.6946564885496,-146.5648854961832,1.9465648854961832,166.60550458715596,-204.6788990825688,-93.30275229357798,,
1760467423.5199783,63,-0.6108791208791209,1.767956043956044,145.53296703296704,111.37404580152672,-154.38167938931298,1.9465648854961832,225.3211009174312,-251.65137614678895,-116.78899082568807,,
1760467423.530582,64,-0.5821318681318681,1.8110769230769237,163.9312087912088,89.87786259541984,-150.4732824427481,1.9465648854961832,284.0366972477064,-275.13761467889907,-163.76146788990826,,
1760467423.5516863,65,-0.5102637362637363,1.7607692307692309,156.62221978021978,101.6030534351145,-150.4732824427481,1.9465648854961832,342.7522935779817,-275.13761467889907,-163.76146788990826,,
1760467423.562419,66,-0.5246373626373626,1.7320219780219783,173.03690109890113,76.19847328244275,-152.42748091603053,1.9465648854961832,401.4678899082568,-204.6788990825688,-116.78899082568807,,
1760467423.5835524,67,-0.4815164835164835,1.7032747252747251,163.7659120879121,89.87786259541984,-146.5648854961832,1.9465648854961832,460.18348623853205,-275.13761467889907,-46.3302752293578,,
1760467423.5943558,68,-0.6827472527472528,1.7607692307692309,163.82340659340662,101.6030534351145,-142.65648854961833,1.9465648854961832,518.8990825688073,-181.1926605504587,-116.78899082568807,,
1760467423.6154585,69,-0.5677582417582419,1.631406593406593,156.5719120879121,91.83206106870227,-152.42748091603053,1.9465648854961832,577.6146788990825,-251.65137614678895,-46.3302752293578,,
1760467423.646999,70,-0.6899340659340659,1.767956043956044,160.26593406593406,87.92366412213741,-158.29007633587787,1.9465648854961832,636.3302752293578,-204.6788990825688,-69.81651376146789,,
1760467423.6577463,71,-0.5821318681318681,1.7751428571428571,152.91382417582415,76.19847328244275,-148.51908396946564,1.9465648854961832,695.045871559633,-228.16513761467888,-93.30275229357798,,
1760467423.6789198,72,-0.4024615384615385,1.7392087912087917,165.69916483516485,70.33587786259542,-146.5648854961832,1.9465648854961832,753.7614678899082,-275.13761467889907,-69.81651376146789,,
1760467423.7102466,73,-0.6180659340659341,1.7535824175824175,145.5617142857143,95.74045801526718,-158.29007633587787,1.9465648854961832,812.4770642201835,-228.16513761467888,-116.78899082568807,,
1760467423.7209053,74,-0.6324395604395605,1.7823296703296705,158.50516483516483,85.96946564885496,-162.19847328244273,1.9465648854961832,871.1926605504586,-204.6788990825688,-93.30275229357798,,
1760467423.7418983,75,-0.5821318681318681,1.6745274725274726,171.23301098901098,95.74045801526718,-162.19847328244273,1.9465648854961832,929.908256880734,-204.6788990825688,-46.3302752293578,,
1760467423.752452,76,-0.574945054945055,1.6457802197802198,160.25874725274724,95.74045801526718,-152.42748091603053,1.9465648854961832,988.6238532110092,-228.16513761467888,-116.78899082568807,,
1760467423.773746,77,-0.654,1.6457802197802198,165.80696703296704,89.87786259541984,-154.38167938931298,1.9465648854961832,1047.3394495412845,-298.6238532110092,-116.78899082568807,,
1760467423.805329,78,-0.5318241758241758,1.494857142857143,147.37279120879123,78.1526717557252,-162.19847328244273,1.9465648854961832,1106.0550458715595,-204.6788990825688,-93.30275229357798,,
1760467423.8159332,79,-0.574945054945055,1.631406593406593,156.55035164835166,89.87786259541984,-148.51908396946564,1.9465648854961832,1164.7706422018348,-298.6238532110092,-116.78899082568807,,
1760467423.8371103,80,-0.5965054945054945,1.688901098901099,156.65815384615385,85.96946564885496,-160.24427480916032,1.9465648854961832,1223.48623853211,-275.13761467889907,-116.78899082568807,,
1760467423.8477447,81,1.2936263736263738,0.0287472527472527,158.39017582417583,99.64885496183206,-148.51908396946564,1.9465648854961832,1282.201834862385,-251.65137614678895,-140.27522935779817,,
1760467423.868786,82,-0.7114945054945055,1.7751428571428571,151.09556043956044,80.10687022900764,-156.33587786259542,1.9465648854961832,1340.9174311926606,-204.6788990825688,-93.30275229357798,,
1760467423.9003873,83,-0.4887032967032967,1.6960879120879122,160.27312087912088,84.01526717557252,-154.38167938931298,1.9465648854961832,1399.633027522936,-228.16513761467888,-93.30275229357798,,
1760467423.9110076,84,-0.574945054945055,1.6601538461538463,167.61085714285716,70.33587786259542,-164.15267175572518,1.9465648854961832,1458.348623853211,-251.65137614678895,-116.78899082568807,,
1760467423.932088,85,-0.5533846153846155,1.7104615384615385,165.75665934065935,85.96946564885496,-160.24427480916032,1.9465648854961832,1517.0642201834862,-228.16513761467888,-93.30275229357798,,
1760467423.9636934,86,-0.424021978021978,1.6601538461538463,163.99589010989013,109.41984732824427,-146.5648854961832,1.9465648854961832,1575.7798165137615,-228.16513761467888,-140.27522935779817,,
1760467423.9743483,87,-0.5533846153846155,1.767956043956044,156.60784615384617,105.5114503816794,-152.42748091603053,1.9465648854961832,1634.4954128440368,-251.65137614678895,-116.78899082568807,,
1760467423.995527,88,-0.4312087912087912,1.6242197802197802,165.80696703296704,89.87786259541984,-146.5648854961832,1.9465648854961832,1693.211009174312,-275.13761467889907,-116.78899082568807,,
1760467424.027209,89,-0.6755604395604397,1.6457802197802198,165.66323076923078,74.2442748091603,-152.42748091603053,1.9465648854961832,1751.926605504587,-322.11009174311926,-69.81651376146789,,
1760467424.037837,90,-0.6396263736263736,1.6817142857142855,167.5821098901099,82.06106870229007,-154.38167938931298,1.9465648854961832,1810.6422018348624,-228.16513761467888,-93.30275229357798,,
1760467424.0585911,91,-0.4743296703296704,1.617032967032967,152.88507692307692,89.87786259541984,-156.33587786259542,1.9465648854961832,1869.3577981651376,-204.6788990825688,-140.27522935779817,,
1760467424.0901434,92,-0.6396263736263736,1.7320219780219783,171.4054945054945,97.6946564885496,-156.33587786259542,1.9465648854961832,1928.073394495413,-228.16513761467888,-116.78899082568807,,
1760467424.1008644,93,-0.5533846153846155,1.566725274725275,160.22281318681317,99.64885496183206,-154.38167938931298,1.9465648854961832,1986.788990825688,-228.16513761467888,-116.78899082568807,,
1760467424.1221128,94,-0.5677582417582419,1.724835164835165,140.0063076923077,89.87786259541984,-164.15267175572518,1.9465648854961832,2045.5045871559632,-228.16513761467888,-116.78899082568807,,
1760467424.1432636,95,-0.6180659340659341,1.7176483516483516,167.61804395604395,80.10687022900764,-160.24427480916032,1.9465648854961832,2104.2201834862385,-251.65137614678895,-69.81651376146789,,
1760467424.1539297,96,-0.4312087912087912,1.6960879120879122,160.1725054945055,76.19847328244275,-154.38167938931298,1.9465648854961832,2162.935779816514,-251.65137614678895,-93.30275229357798,,
1760467424.1644738,97,-0.5821318681318681,1.6601538461538463,165.77103296703297,89.87786259541984,-158.29007633587787,1.9465648854961832,2221.651376146789,-251.65137614678895,-116.78899082568807,,
1760467424.185598,98,-0.6899340659340659,1.688901098901099,154.73208791208793,95.74045801526718,-158.29007633587787,1.9465648854961832,2280.3669724770643,-275.13761467889907,-93.30275229357798,,
1760467424.2173283,99,-0.3018461538461539,1.7607692307692309,163.89527472527473,89.87786259541984,-154.38167938931298,1.9465648854961832,2339.08256880734,-275.13761467889907,-187.24770642201835,,
1760467424.227873,100,-0.5102637362637363,1.7392087912087917,158.4404835164835,89.87786259541984,-148.51908396946564,1.9465648854961832,2397.798165137615,-228.16513761467888,-116.78899082568807,,
1760467424.248972,101,-0.424021978021978,1.7751428571428571,158.41892307692308,87.92366412213741,-158.29007633587787,1.9465648854961832,2456.51376146789,-251.65137614678895,-116.78899082568807,,
1760467424.2595644,102,-0.5461978021978022,1.7823296703296705,165.69197802197803,72.29007633587786,-152.42748091603053,1.9465648854961832,2515.229357798165,-275.13761467889907,-93.30275229357798,,
1760467424.2807462,103,-0.5965054945054945,1.7392087912087917,165.72072527472528,91.83206106870227,-148.51908396946564,1.9465648854961832,2573.9449541284403,-228.16513761467888,-140.27522935779817,,
1760467424.3123374,104,-0.6611868131868132,1.6601538461538463,162.03389010989014,95.74045801526718,-146.5648854961832,1.9465648854961832,2632.6605504587155,-251.65137614678895,-116.78899082568807,,
1760467424.3232005,105,-0.574945054945055,1.7895164835164834,163.9743296703297,95.74045801526718,-146.5648854961832,1.9465648854961832,2691.376146788991,-228.16513761467888,-69.81651376146789,,
1760467424.3443289,106,-0.4527692307692308,1.7392087912087917,173.0872087912088,82.06106870229007,-158.29007633587787,1.9465648854961832,2750.091743119266,-251.65137614678895,-93.30275229357798,,
1760467424.3549333,107,-0.5318241758241758,1.688901098901099,163.92402197802198,72.29007633587786,-150.4732824427481,1.9465648854961832,2808.8073394495414,-275.13761467889907,-69.81651376146789,,
1760467424.375988,108,-0.3377802197802198,1.6385934065934065,160.2371868131868,72.29007633587786,-164.15267175572518,1.9465648854961832,2867.5229357798166,-275.13761467889907,-116.78899082568807,,
1760467424.4076257,109,-0.5102637362637363,1.6817142857142855,163.9312087912088,99.64885496183206,-148.51908396946564,1.9465648854961832,2926.238532110092,-251.65137614678895,-116.78899082568807,,
1760467424.4183133,110,-0.4958901098901099,1.566725274725275,160.30186813186813,89.87786259541984,-146.5648854961832,1.9465648854961832,2984.954128440367,-228.16513761467888,-140.27522935779817,,
1760467424.4395535,111,-0.4671428571428571,1.7535824175824175,156.65096703296703,97.6946564885496,-156.33587786259542,1.9465648854961832,-2968.8073394495414,-228.16513761467888,-116.78899082568807,,
1760467424.4502504,112,-0.6396263736263736,1.7320219780219783,158.41173626373626,82.06106870229007,-154.38167938931298,1.9465648854961832,-2910.091743119266,-275.13761467889907,-163.76146788990826,,
1760467424.471326,113,-0.5030769230769231,1.688901098901099,156.59347252747253,80.10687022900764,-158.29007633587787,1.9465648854961832,-2851.376146788991,-251.65137614678895,-93.30275229357798,,
1760467424.5024729,114,-0.5318241758241758,1.631406593406593,154.73208791208793,82.06106870229007,-152.42748091603053,1.9465648854961832,-2792.6605504587155,-228.16513761467888,-116.78899082568807,,
1760467424.5129616,115,-0.539010989010989,1.6817142857142855,178.53481318681318,87.92366412213741,-148.51908396946564,1.9465648854961832,-2733.9449541284403,-228.16513761467888,-116.78899082568807,,
1760467424.534222,116,-0.6180659340659341,1.7176483516483516,165.69916483516485,84.01526717557252,-156.33587786259542,1.9465648854961832,-2675.229357798165,-228.16513761467888,-116.78899082568807,,
1760467424.5657213,117,-0.5246373626373626,1.631406593406593,167.55336263736265,95.74045801526718,-156.33587786259542,1.9465648854961832,-2616.5137614678897,-228.16513761467888,-46.3302752293578,,
1760467424.5762837,118,-0.5102637362637363,1.7176483516483516,156.6294065934066,78.1526717557252,-152.42748091603053,1.9465648854961832,-2557.7981651376144,-228.16513761467888,-140.27522935779817,,
1760467424.5974095,119,-0.4527692307692308,1.7967032967032968,154.7608351648352,82.06106870229007,-166.10687022900763,1.9465648854961832,-2499.082568807339,-228.16513761467888,-140.27522935779817,,
1760467424.6082668,120,-0.654,1.7463956043956046,165.79259340659345,91.83206106870227,-158.29007633587787,1.9465648854961832,-2440.366972477064,-228.16513761467888,-69.81651376146789,,
1760467424.6295085,121,-0.5246373626373626,1.7392087912087917,151.16024175824177,80.10687022900764,-152.42748091603053,1.9465648854961832,-2381.6513761467886,-228.16513761467888,-116.78899082568807,,
1760467424.6611643,122,-0.4671428571428571,1.7751428571428571,167.62523076923077,70.33587786259542,-148.51908396946564,1.9465648854961832,-2322.935779816514,-228.16513761467888,-93.30275229357798,,
1760467424.6718717,123,-0.5677582417582419,1.7176483516483516,147.35123076923077,78.1526717557252,-156.33587786259542,1.9465648854961832,-2264.2201834862385,-204.6788990825688,-93.30275229357798,,
1760467424.6930082,124,-0.6108791208791209,1.6385934065934065,165.76384615384617,99.64885496183206,-152.42748091603053,1.9465648854961832,-2205.5045871559632,-228.16513761467888,-93.30275229357798,,
1760467424.7037628,125,-0.6180659340659341,1.609846153846154,147.28654945054944,89.87786259541984,-146.5648854961832,1.9465648854961832,-2146.788990825688,-228.16513761467888,-93.30275229357798,,
1760467424.7250006,126,-0.5677582417582419,1.6385934065934065,163.92402197802198,87.92366412213741,-158.29007633587787,1.9465648854961832,-2088.0733944954127,-228.16513761467888,-93.30275229357798,,
1760467424.7565832,127,-0.5605714285714286,1.6817142857142855,158.3254945054945,76.19847328244275,-158.29007633587787,1.9465648854961832,-2029.3577981651372,-251.65137614678895,-93.30275229357798,,
1760467424.7672338,128,-0.4815164835164835,1.7320219780219783,162.03389010989014,80.10687022900764,-156.33587786259542,1.9465648854961832,-1970.6422018348624,-275.13761467889907,-116.78899082568807,,
1760467424.788303,129,-0.424021978021978,1.6960879120879122,167.65397802197802,78.1526717557252,-156.33587786259542,1.9465648854961832,-1911.9266055045875,-251.65137614678895,-116.78899082568807,,
1760467424.820194,130,-0.539010989010989,1.6745274725274726,158.46923076923076,82.06106870229007,-154.38167938931298,1.9465648854961832,-1853.211009174312,-228.16513761467888,-69.81651376146789,,
1760467424.8307722,131,-0.4455824175824175,1.573912087912088,162.05545054945057,87.92366412213741,-140.70229007633588,1.9465648854961832,-1794.4954128440368,-228.16513761467888,-93.30275229357798,,
1760467424.851852,132,-0.5821318681318681,1.6385934065934065,162.17043956043958,84.01526717557252,-150.4732824427481,1.9465648854961832,-1735.7798165137615,-251.65137614678895,-140.27522935779817,,
1760467424.8625755,133,-0.4887032967032967,1.6960879120879122,165.82134065934068,91.83206106870227,-146.5648854961832,1.9465648854961832,-1677.0642201834864,-204.6788990825688,-93.30275229357798,,
1760467424.8941984,134,-0.5533846153846155,1.7032747252747251,164.02463736263738,68.38167938931298,-156.33587786259542,1.9465648854961832,-1618.3486238532112,-228.16513761467888,-163.76146788990826,,
1760467424.915409,135,-0.6180659340659341,1.7320219780219783,163.92402197802198,85.96946564885496,-150.4732824427481,1.9465648854961832,-1559.6330275229357,-275.13761467889907,-140.27522935779817,,
1760467424.926288,136,-0.5965054945054945,1.631406593406593,165.7782197802198,97.6946564885496,-156.33587786259542,1.9465648854961832,-1500.9174311926606,-251.65137614678895,-163.76146788990826,,
1760467424.947425,137,-0.5821318681318681,1.6457802197802198,154.6674065934066,101.6030534351145,-152.42748091603053,1.9465648854961832,-1442.201834862385,-228.16513761467888,-69.81651376146789,,
1760467424.957997,138,-0.5174505494505495,1.6673406593406594,154.768021978022,95.74045801526718,-158.29007633587787,1.9465648854961832,-1383.48623853211,-228.16513761467888,-93.30275229357798,,
1760467424.9792109,139,-0.6827472527472528,1.6529670329670332,156.60065934065935,89.87786259541984,-154.38167938931298,1.9465648854961832,-1324.7706422018348,-251.65137614678895,-116.78899082568807,,
1760467425.0109255,140,-0.6180659340659341,1.6673406593406594,171.21145054945055,84.01526717557252,-152.42748091603053,1.9465648854961832,-1266.0550458715595,-275.13761467889907,-116.78899082568807,,
1760467425.021815,141,-0.6396263736263736,1.5810989010989014,154.7105274725275,76.19847328244275,-148.51908396946564,1.9465648854961832,-1207.3394495412845,-251.65137614678895,-163.76146788990826,,
1760467425.0428803,142,-0.5965054945054945,1.6385934065934065,158.4261098901099,93.78625954198472,-156.33587786259542,1.9465648854961832,-1148.6238532110092,-228.16513761467888,-140.27522935779817,,
1760467425.074325,143,-0.6036923076923078,1.7535824175824175,156.55035164835166,89.87786259541984,-156.33587786259542,1.9465648854961832,-1089.908256880734,-275.13761467889907,-116.78899082568807,,
1760467425.0849574,144,-0.4527692307692308,1.5523516483516484,160.25156043956045,80.10687022900764,-158.29007633587787,1.9465648854961832,-1031.1926605504586,-275.13761467889907,-116.78899082568807,,
1760467425.106083,145,-0.5821318681318681,1.6457802197802198,169.39318681318682,85.96946564885496,-148.51908396946564,1.9465648854961832,-972.4770642201836,-251.65137614678895,-69.81651376146789,,
1760467425.1167424,146,-0.5605714285714286,1.7320219780219783,156.57909890109892,82.06106870229007,-158.29007633587787,1.9465648854961832,-913.7614678899082,-204.6788990825688,-93.30275229357798,,
1760467425.1379142,147,-0.5533846153846155,1.767956043956044,163.86652747252748,87.92366412213741,-156.33587786259542,1.9465648854961832,-855.0458715596329,-251.65137614678895,-93.30275229357798,,
1760467425.169297,148,-0.5605714285714286,1.724835164835165,150.9518241758242,85.96946564885496,-150.4732824427481,1.9465648854961832,-796.3302752293578,-228.16513761467888,-69.81651376146789,,
1760467425.179998,149,-0.5893186813186814,1.6529670329670332,165.70635164835167,93.78625954198472,-160.24427480916032,1.9465648854961832,-737.6146788990826,-181.1926605504587,-69.81651376146789,,
1760467425.2011373,150,-0.4958901098901099,1.7967032967032968,176.89621978021978,89.87786259541984,-146.5648854961832,1.9465648854961832,-678.8990825688073,-228.16513761467888,-116.78899082568807,,
1760467425.2328377,151,-0.6036923076923078,1.7823296703296705,167.5821098901099,84.01526717557252,-150.4732824427481,1.9465648854961832,-620.1834862385322,-228.16513761467888,-93.30275229357798,,
1760467425.243394,152,-0.6180659340659341,1.7104615384615385,173.11595604395606,68.38167938931298,-158.29007633587787,1.9465648854961832,-561.4678899082569,-251.65137614678895,-69.81651376146789,,
1760467425.2644217,153,-0.5030769230769231,1.631406593406593,154.7177142857143,87.92366412213741,-156.33587786259542,1.9465648854961832,-502.7522935779817,-228.16513761467888,-116.78899082568807,,
1760467425.275101,154,-0.5677582417582419,1.7751428571428571,169.46505494505493,97.6946564885496,-156.33587786259542,1.9465648854961832,-444.0366972477064,-204.6788990825688,-69.81651376146789,,
1760467425.2961988,155,-0.5533846153846155,1.6960879120879122,152.8635164835165,101.6030534351145,-154.38167938931298,1.9465648854961832,-385.3211009174312,-204.6788990825688,-116.78899082568807,,
1760467425.3279257,156,-0.6180659340659341,1.609846153846154,156.6294065934066,84.01526717557252,-152.42748091603053,1.9465648854961832,-326.605504587156,-228.16513761467888,-69.81651376146789,,
1760467425.33854,157,-0.5461978021978022,1.6601538461538463,149.1623076923077,80.10687022900764,-154.38167938931298,1.9465648854961832,-267.88990825688074,-228.16513761467888,-69.81651376146789,,
1760467425.359613,158,-0.4958901098901099,1.724835164835165,147.38716483516484,74.2442748091603,-152.42748091603053,1.9465648854961832,-209.1743119266055,-228.16513761467888,-116.78899082568807,,
1760467425.3911643,159,-0.5821318681318681,1.6385934065934065,167.55336263736265,97.6946564885496,-152.42748091603053,1.9465648854961832,-150.45871559633028,-251.65137614678895,-69.81651376146789,,
1760467425.4021134,160,1.3439340659340662,0.0,147.39435164835166,89.87786259541984,-148.51908396946564,1.9465648854961832,-91.74311926605505,-251.65137614678895,-116.78899082568807,,
1760467425.4235537,161,-0.5461978021978022,1.80389010989011,160.2803076923077,95.74045801526718,-162.19847328244273,1.9465648854961832,-33.02752293577982,-251.65137614678895,-93.30275229357798,,
1760467425.4342628,162,-0.5030769230769231,1.7535824175824175,156.49285714285716,89.87786259541984,-148.51908396946564,1.9465648854961832,25.68807339449541,-204.58715596330276,-116.78899082568807,,
1760467425.455273,163,-0.5893186813186814,1.7823296703296705,176.78123076923077,84.01526717557252,-152.42748091603053,1.9465648854961832,84.40366972477065,-228.07339449541283,-116.78899082568807,,
1760467425.4867313,164,-0.5605714285714286,1.7392087912087917,171.28331868131866,85.96946564885496,-144.61068702290078,1.9465648854961832,143.11926605504587,-251.5596330275229,-69.81651376146789,,
1760467425.4972568,165,1.3223736263736263,0.0359340659340659,162.1273186813187,78.1526717557252,-154.38167938931298,1.9465648854961832,201.8348623853211,-204.58715596330276,-93.30275229357798,,
1760467425.5185187,166,-0.6036923076923078,1.609846153846154,165.79259340659345,89.87786259541984,-150.4732824427481,1.9465648854961832,260.55045871559633,-181.10091743119264,-69.81651376146789,,
1760467425.5292118,167,-0.6180659340659341,1.80389010989011,151.10274725274726,97.6946564885496,-154.38167938931298,1.9465648854961832,319.26605504587155,-228.07339449541283,-69.81651376146789,,
1760467425.5504467,168,-0.4958901098901099,1.7751428571428571,165.886021978022,80.10687022900764,-160.24427480916032,1.9465648854961832,377.9816513761468,-251.5596330275229,-116.78899082568807,,
1760467425.5820026,169,-0.5533846153846155,1.6529670329670332,162.13450549450553,78.1526717557252,-162.19847328244273,1.9465648854961832,436.697247706422,-275.04587155963304,-93.30275229357798,,
1760467425.5925398,170,-0.4527692307692308,1.6673406593406594,162.0698241758242,68.38167938931298,-150.4732824427481,1.9465648854961832,495.4128440366972,-204.58715596330276,-93.30275229357798,,
1760467425.613485,171,-0.6180659340659341,1.6817142857142855,162.0698241758242,85.96946564885496,-154.38167938931298,1.9465648854961832,554.1284403669724,-204.58715596330276,-69.81651376146789,,
1760467425.6448257,172,-0.4958901098901099,1.7607692307692309,158.47641758241758,85.96946564885496,-152.42748091603053,1.9465648854961832,612.8440366972477,-228.07339449541283,-93.30275229357798,,
1760467425.655399,173,-0.5030769230769231,1.724835164835165,162.05545054945057,95.74045801526718,-148.51908396946564,1.9465648854961832,671.5596330275229,-204.58715596330276,-116.78899082568807,,
1760467425.676469,174,-0.6396263736263736,1.6026593406593408,158.31830769230768,82.06106870229007,-152.42748091603053,1.9465648854961832,730.2752293577981,-298.5321100917431,-116.78899082568807,,
1760467425.6871183,175,-0.4671428571428571,1.6385934065934065,152.79164835164835,89.87786259541984,-164.15267175572518,1.9465648854961832,788.9908256880734,-204.58715596330276,-69.81651376146789,,
1760467425.7082984,176,-0.6324395604395605,1.566725274725275,162.11294505494507,68.38167938931298,-150.4732824427481,1.9465648854961832,847.7064220183486,-228.07339449541283,-116.78899082568807,,
1760467425.7400444,177,-0.5318241758241758,1.724835164835165,158.41173626373626,95.74045801526718,-150.4732824427481,1.9465648854961832,906.422018348624,-251.5596330275229,-93.30275229357798,,
1760467425.7506795,178,-0.5605714285714286,1.5954725274725277,165.85008791208793,85.96946564885496,-150.4732824427481,1.9465648854961832,965.1376146788992,-251.5596330275229,-93.30275229357798,,
1760467425.77171,179,-0.5030769230769231,1.7463956043956046,163.89527472527473,95.74045801526718,-156.33587786259542,1.9465648854961832,1023.8532110091744,-228.07339449541283,-69.81651376146789,,
1760467425.8033156,180,-0.3880879120879121,1.6385934065934065,169.4938021978022,93.78625954198472,-160.24427480916032,1.9465648854961832,1082.5688073394494,-251.5596330275229,-93.30275229357798,,
1760467425.813993,181,-0.4383956043956044,1.6242197802197802,152.91382417582415,93.78625954198472,-160.24427480916032,1.9465648854961832,1141.2844036697247,-298.5321100917431,-46.3302752293578,,
1760467425.8250344,182,-0.5965054945054945,1.6817142857142855,169.45068131868132,78.1526717557252,-146.5648854961832,1.9465648854961832,1200.0,-204.58715596330276,-93.30275229357798,,
1760467425.836019,183,-0.539010989010989,1.6601538461538463,158.40454945054947,87.92366412213741,-144.61068702290078,1.9465648854961832,1258.7155963302753,-181.10091743119264,-140.27522935779817,,
1760467425.85731,184,-0.5461978021978022,1.5882857142857143,162.09138461538464,95.74045801526718,-148.51908396946564,1.9465648854961832,1317.4311926605506,-228.07339449541283,-93.30275229357798,,
1760467425.8903933,185,-0.5533846153846155,1.6601538461538463,152.9353846153846,91.83206106870227,-156.33587786259542,1.9465648854961832,1376.1467889908256,-251.5596330275229,-46.3302752293578,,
1760467425.9009533,186,-0.459956043956044,1.6817142857142855,174.95578021978022,84.01526717557252,-156.33587786259542,1.9465648854961832,1434.8623853211009,-228.07339449541283,-46.3302752293578,,
1760467425.9220054,187,-0.6468131868131869,1.688901098901099,167.70428571428573,87.92366412213741,-156.33587786259542,1.9465648854961832,1493.577981651376,-228.07339449541283,-93.30275229357798,,
1760467425.9532552,188,-0.5965054945054945,1.573912087912088,169.386,72.29007633587786,-156.33587786259542,1.9465648854961832,1552.2935779816514,-251.5596330275229,-116.78899082568807,,
1760467425.9638135,189,1.2361318681318685,0.0071868131868131,160.19406593406592,84.01526717557252,-152.42748091603053,1.9465648854961832,1611.0091743119267,-275.04587155963304,-140.27522935779817,,
1760467425.98446,190,-0.5246373626373626,1.6457802197802198,156.7084615384615,91.83206106870227,-152.42748091603053,1.9465648854961832,1669.7247706422015,-204.58715596330276,-93.30275229357798,,
1760467426.0154674,191,-0.539010989010989,1.7176483516483516,139.98474725274727,99.64885496183206,-160.24427480916032,1.9465648854961832,1728.440366972477,-228.07339449541283,-69.81651376146789,,
1760467426.0259824,192,-0.6252527472527473,1.6242197802197802,173.1878241758242,80.10687022900764,-148.51908396946564,1.9465648854961832,1787.1559633027523,-228.07339449541283,-93.30275229357798,,
1760467426.046794,193,-0.5318241758241758,1.6817142857142855,154.7177142857143,85.96946564885496,-152.42748091603053,1.9465648854961832,1845.871559633028,-228.07339449541283,-93.30275229357798,,
1760467426.057211,194,-0.5102637362637363,1.7463956043956046,165.71353846153846,78.1526717557252,-156.33587786259542,1.9465648854961832,1904.5871559633028,-228.07339449541283,-69.81651376146789,,
1760467426.0780702,195,-0.5246373626373626,1.7032747252747251,162.0626373626374,78.1526717557252,-144.61068702290078,1.9465648854961832,1963.302752293578,-275.04587155963304,-116.78899082568807,,
1760467426.1092489,196,-0.5102637362637363,1.631406593406593,158.40454945054947,95.74045801526718,-142.65648854961833,1.9465648854961832,2022.0183486238527,-251.5596330275229,-93.30275229357798,,
1760467426.119721,197,-0.5677582417582419,1.7895164835164834,156.57909890109892,95.74045801526718,-144.61068702290078,1.9465648854961832,2080.7339449541287,-251.5596330275229,-93.30275229357798,,
1760467426.1404536,198,-0.5605714285714286,1.6745274725274726,174.92703296703297,78.1526717557252,-146.5648854961832,1.9465648854961832,2139.4495412844035,-204.58715596330276,-163.76146788990826,,
1760467426.1715314,199,-0.6324395604395605,1.6026593406593408,154.7105274725275,80.10687022900764,-158.29007633587787,1.9465648854961832,2198.1651376146788,-275.04587155963304,-140.27522935779817,,
1760467426.1819944,200,-0.6324395604395605,1.7032747252747251,156.55753846153848,72.29007633587786,-156.33587786259542,1.9465648854961832,2256.880733944954,-275.04587155963304,-93.30275229357798,,
1760467426.2027428,201,-0.5677582417582419,1.6529670329670332,163.94558241758244,82.06106870229007,-164.15267175572518,1.9465648854961832,2315.5963302752293,-251.5596330275229,-69.81651376146789,,
1760467426.2131133,202,-0.574945054945055,1.6457802197802198,149.25573626373625,93.78625954198472,-154.38167938931298,1.9465648854961832,2374.3119266055046,-228.07339449541283,-140.27522935779817,,
1760467426.2340603,203,-0.6180659340659341,1.6673406593406594,158.3254945054945,97.6946564885496,-152.42748091603053,1.9465648854961832,2433.02752293578,-228.07339449541283,-140.27522935779817,,
1760467426.2655225,204,-0.5677582417582419,1.6673406593406594,154.68178021978022,91.83206106870227,-144.61068702290078,1.9465648854961832,2491.743119266055,-204.58715596330276,-93.30275229357798,,
1760467426.2762408,205,-0.6252527472527473,1.7895164835164834,165.72072527472528,82.06106870229007,-148.51908396946564,1.9465648854961832,2550.4587155963304,-275.04587155963304,-93.30275229357798,,
1760467426.297158,206,-0.5318241758241758,1.688901098901099,158.4404835164835,72.29007633587786,-150.4732824427481,1.9465648854961832,2609.1743119266057,-228.07339449541283,-69.81651376146789,,
1760467426.3076928,207,-0.6036923076923078,1.5810989010989014,156.54316483516484,89.87786259541984,-152.42748091603053,1.9465648854961832,2667.889908256881,-181.10091743119264,-93.30275229357798,,
1760467426.338947,208,-0.5965054945054945,1.7392087912087917,160.27312087912088,87.92366412213741,-162.19847328244273,1.9465648854961832,2726.605504587156,-228.07339449541283,-69.81651376146789,,
1760467426.3497603,209,-0.5461978021978022,1.6601538461538463,163.8593406593407,95.74045801526718,-162.19847328244273,1.9465648854961832,2785.321100917431,-228.07339449541283,-69.81651376146789,,
1760467426.3707082,210,-0.5965054945054945,1.7320219780219783,163.92402197802198,80.10687022900764,-160.24427480916032,1.9465648854961832,2844.0366972477063,-251.5596330275229,-93.30275229357798,,
1760467426.402085,211,-0.4671428571428571,1.6242197802197802,158.39736263736265,89.87786259541984,-154.38167938931298,1.9465648854961832,2902.7522935779816,-228.07339449541283,-163.76146788990826,,
1760467426.4125524,212,-0.5821318681318681,1.6673406593406594,167.5318021978022,84.01526717557252,-150.4732824427481,1.9465648854961832,2961.467889908257,-298.5321100917431,-140.27522935779817,,
1760467426.433748,213,-0.5893186813186814,1.80389010989011,154.7105274725275,84.01526717557252,-148.51908396946564,1.9465648854961832,-2992.293577981651,-181.10091743119264,-46.3302752293578,,
1760467426.4453096,214,-0.5461978021978022,1.6745274725274726,156.50004395604395,89.87786259541984,-152.42748091603053,1.9465648854961832,-2933.577981651376,-251.5596330275229,-93.30275229357798,,
1760467426.4664729,215,-0.6036923076923078,1.7967032967032968,162.0698241758242,99.64885496183206,-148.51908396946564,1.9465648854961832,-2874.8623853211006,-228.07339449541283,-93.30275229357798,,
1760467426.497996,216,-0.6899340659340659,1.8254505494505493,158.41892307692308,76.19847328244275,-156.33587786259542,1.9465648854961832,-2816.1467889908254,-204.58715596330276,-116.78899082568807,,
1760467426.5085812,217,-0.4815164835164835,1.7320219780219783,171.24738461538462,80.10687022900764,-160.24427480916032,1.9465648854961832,-2757.4311926605506,-251.5596330275229,-69.81651376146789,,
1760467426.52959,218,-0.5174505494505495,1.6529670329670332,154.8183296703297,87.92366412213741,-148.51908396946564,1.9465648854961832,-2698.7155963302757,-204.58715596330276,-116.78899082568807,,
1760467426.561158,219,-0.6036923076923078,1.7320219780219783,141.8820659340659,91.83206106870227,-150.4732824427481,1.9465648854961832,-2640.0,-298.5321100917431,-93.30275229357798,,
1760467426.5716796,220,-0.5677582417582419,1.631406593406593,152.97131868131868,95.74045801526718,-150.4732824427481,1.9465648854961832,-2581.2844036697247,-251.5596330275229,-116.78899082568807,,
1760467426.5928595,221,-0.6108791208791209,1.5810989010989014,162.09857142857146,87.92366412213741,-156.33587786259542,1.9465648854961832,-2522.568807339449,-204.58715596330276,-163.76146788990826,,
1760467426.603371,222,1.2864395604395606,0.0143736263736263,160.30186813186813,80.10687022900764,-146.5648854961832,1.9465648854961832,-2463.853211009174,-251.5596330275229,-116.78899082568807,,
1760467426.624242,223,-0.5821318681318681,1.631406593406593,171.26175824175823,74.2442748091603,-146.5648854961832,1.9465648854961832,-2405.137614678899,-228.07339449541283,-140.27522935779817,,
1760467426.6558702,224,-0.5318241758241758,1.7032747252747251,158.39017582417583,78.1526717557252,-144.61068702290078,1.9465648854961832,-2346.422018348624,-181.10091743119264,-116.78899082568807,,
1760467426.6662958,225,-0.4743296703296704,1.688901098901099,167.60367032967034,82.06106870229007,-152.42748091603053,1.9465648854961832,-2287.7064220183483,-228.07339449541283,-69.81651376146789,,
1760467426.687181,226,-0.5461978021978022,1.7032747252747251,160.14375824175823,93.78625954198472,-154.38167938931298,1.9465648854961832,-2228.990825688073,-204.58715596330276,-93.30275229357798,,
1760467426.7185478,227,-0.4958901098901099,1.7320219780219783,154.7105274725275,91.83206106870227,-154.38167938931298,1.9465648854961832,-2170.275229357798,-275.04587155963304,-93.30275229357798,,
1760467426.729162,228,-0.5461978021978022,1.6385934065934065,163.9168351648352,84.01526717557252,-152.42748091603053,1.9465648854961832,-2111.559633027523,-228.07339449541283,-116.78899082568807,,
1760467426.7501545,229,-0.574945054945055,1.7823296703296705,169.47942857142857,85.96946564885496,-162.19847328244273,1.9465648854961832,-2052.844036697248,-251.5596330275229,-116.78899082568807,,
1760467426.7609715,230,-0.4958901098901099,1.8110769230769237,156.58628571428574,82.06106870229007,-160.24427480916032,1.9465648854961832,-1994.1284403669729,-204.58715596330276,-116.78899082568807,,
1760467426.781998,231,-0.6611868131868132,1.537978021978022,151.04525274725276,87.92366412213741,-154.38167938931298,1.9465648854961832,-1935.4128440366972,-204.58715596330276,-140.27522935779817,,
1760467426.8140564,232,-0.6108791208791209,1.7320219780219783,154.63865934065936,93.78625954198472,-150.4732824427481,1.9465648854961832,-1876.697247706422,-275.04587155963304,-93.30275229357798,,
1760467426.8245084,233,-0.4958901098901099,1.6960879120879122,163.89527472527473,93.78625954198472,-152.42748091603053,1.9465648854961832,-1817.981651376147,-251.5596330275229,-93.30275229357798,,
1760467426.8453755,234,-0.6468131868131869,1.7176483516483516,165.73509890109892,78.1526717557252,-162.19847328244273,1.9465648854961832,-1759.2660550458718,-228.07339449541283,-69.81651376146789,,
1760467426.8557386,235,-0.6108791208791209,1.6529670329670332,173.2956263736264,74.2442748091603,-144.61068702290078,1.9465648854961832,-1700.5504587155965,-251.5596330275229,-140.27522935779817,,
1760467426.876743,236,-0.539010989010989,1.7607692307692309,162.20637362637365,78.1526717557252,-142.65648854961833,1.9465648854961832,-1641.8348623853212,-251.5596330275229,-116.78899082568807,,
1760467426.9084342,237,-0.459956043956044,1.7176483516483516,147.49496703296705,87.92366412213741,-162.19847328244273,1.9465648854961832,-1583.119266055046,-228.07339449541283,-93.30275229357798,,
1760467426.9190855,238,-0.3521538461538461,1.7463956043956046,163.88090109890112,95.74045801526718,-142.65648854961833,1.9465648854961832,-1524.403669724771,-275.04587155963304,-140.27522935779817,,
1760467426.940029,239,-0.4743296703296704,1.6457802197802198,147.40153846153848,87.92366412213741,-152.42748091603053,1.9465648854961832,-1465.6880733944954,-228.07339449541283,-163.76146788990826,,
1760467426.970987,240,-0.5461978021978022,1.6529670329670332,158.3758021978022,89.87786259541984,-156.33587786259542,1.9465648854961832,-1406.97247706422,-251.5596330275229,-116.78899082568807,,
1760467426.981438,241,-0.459956043956044,1.7535824175824175,160.19406593406592,82.06106870229007,-146.5648854961832,1.9465648854961832,-1348.2568807339449,-204.58715596330276,-93.30275229357798,,
1760467427.0026176,242,-0.5821318681318681,1.7967032967032968,154.768021978022,74.2442748091603,-148.51908396946564,1.9465648854961832,-1289.5412844036696,-275.04587155963304,-93.30275229357798,,
1760467427.0133023,243,-0.5821318681318681,1.5882857142857143,165.77103296703297,85.96946564885496,-154.38167938931298,1.9465648854961832,-1230.8256880733943,-298.5321100917431,-69.81651376146789,,
1760467427.0345864,244,-0.5174505494505495,1.7320219780219783,152.79883516483517,80.10687022900764,-156.33587786259542,1.9465648854961832,-1172.1100917431193,-275.04587155963304,-116.78899082568807,,
1760467427.0661862,245,-0.5461978021978022,1.7320219780219783,158.33986813186814,91.83206106870227,-156.33587786259542,1.9465648854961832,-1113.394495412844,-204.58715596330276,-69.81651376146789,,
1760467427.0768268,246,-0.6108791208791209,1.6817142857142855,160.32342857142856,85.96946564885496,-162.19847328244273,1.9465648854961832,-1054.6788990825687,-228.07339449541283,-116.78899082568807,,
1760467427.0980456,247,-0.5318241758241758,1.8182637362637364,163.9743296703297,84.01526717557252,-140.70229007633588,1.9465648854961832,-995.9633027522935,-204.58715596330276,-187.24770642201835,,
1760467427.1193488,248,-0.574945054945055,1.7535824175824175,158.34705494505494,89.87786259541984,-154.38167938931298,1.9465648854961832,-937.2477064220184,-228.07339449541283,-69.81651376146789,,
1760467427.1300704,249,-0.4527692307692308,1.6745274725274726,165.8357142857143,87.92366412213741,-160.24427480916032,1.9465648854961832,-878.5321100917431,-204.58715596330276,-140.27522935779817,,
1760467427.1513577,250,-0.6180659340659341,1.6960879120879122,163.90964835164837,84.01526717557252,-152.42748091603053,1.9465648854961832,-819.8165137614678,-204.58715596330276,-69.81651376146789,,
1760467427.1830437,251,-0.5893186813186814,1.724835164835165,158.3686153846154,89.87786259541984,-152.42748091603053,1.9465648854961832,-761.1009174311927,-228.07339449541283,-116.78899082568807,,
1760467427.1936407,252,-0.5246373626373626,1.5882857142857143,169.47224175824175,84.01526717557252,-152.42748091603053,1.9465648854961832,-702.3853211009174,-251.5596330275229,-116.78899082568807,,
1760467427.2148693,253,-0.5174505494505495,1.7967032967032968,152.8707032967033,74.2442748091603,-154.38167938931298,1.9465648854961832,-643.6697247706422,-228.07339449541283,-93.30275229357798,,
1760467427.2256775,254,-0.6755604395604397,1.7607692307692309,165.73509890109892,78.1526717557252,-158.29007633587787,1.9465648854961832,-584.954128440367,-228.07339449541283,-93.30275229357798,,
1760467427.246967,255,-0.5246373626373626,1.7535824175824175,154.7752087912088,82.06106870229007,-138.74809160305344,1.9465648854961832,-526.2385321100918,-204.58715596330276,-93.30275229357798,,
1760467427.2788951,256,-0.5821318681318681,1.6745274725274726,147.35123076923077,95.74045801526718,-150.4732824427481,1.9465648854961832,-467.5229357798165,-228.07339449541283,-93.30275229357798,,
1760467427.2897406,257,-0.5318241758241758,1.6745274725274726,163.89527472527473,91.83206106870227,-160.24427480916032,1.9465648854961832,-408.8073394495413,-228.07339449541283,-93.30275229357798,,
1760467427.3111255,258,-0.5605714285714286,1.724835164835165,160.24437362637363,91.83206106870227,-154.38167938931298,1.9465648854961832,-350.091743119266,-275.04587155963304,-69.81651376146789,,
1760467427.3428724,259,-0.5821318681318681,1.7104615384615385,171.23301098901098,89.87786259541984,-154.38167938931298,1.9465648854961832,-291.3761467889908,-251.5596330275229,-140.27522935779817,,
1760467427.3534913,260,-0.4815164835164835,1.6817142857142855,160.30905494505495,84.01526717557252,-136.793893129771,1.9465648854961832,-232.6605504587156,-228.07339449541283,-93.30275229357798,,
1760467427.3749309,261,-0.4096483516483516,1.7176483516483516,158.27518681318682,93.78625954198472,-144.61068702290078,1.9465648854961832,-173.94495412844037,-228.07339449541283,-116.78899082568807,,
1760467427.3856108,262,-0.5605714285714286,1.573912087912088,152.94975824175825,84.01526717557252,-148.51908396946564,1.9465648854961832,-115.22935779816514,-251.5596330275229,-140.27522935779817,,
1760467427.406885,263,-0.539010989010989,1.6242197802197802,162.09138461538464,97.6946564885496,-148.51908396946564,1.9465648854961832,-56.51376146788992,-251.5596330275229,-93.30275229357798,,
1760467427.4382522,264,-0.5461978021978022,1.6242197802197802,160.30186813186813,89.87786259541984,-150.4732824427481,1.9465648854961832,2.201834862385321,-227.9816513761468,-116.78899082568807,,
1760467427.4487767,265,-0.539010989010989,1.6673406593406594,160.2874945054945,101.6030534351145,-154.38167938931298,1.9465648854961832,60.91743119266055,-251.4678899082569,-140.27522935779817,,
1760467427.4699051,266,-0.4887032967032967,1.617032967032967,156.5216043956044,80.10687022900764,-158.29007633587787,1.9465648854961832,119.6330275229358,-227.9816513761468,-116.78899082568807,,
1760467427.501362,267,-0.4455824175824175,1.7104615384615385,156.56472527472528,87.92366412213741,-140.70229007633588,1.9465648854961832,178.34862385321102,-251.4678899082569,-69.81651376146789,,
1760467427.512035,268,-0.6468131868131869,1.6673406593406594,158.49079120879122,74.2442748091603,-150.4732824427481,1.9465648854961832,237.06422018348624,-227.9816513761468,-116.78899082568807,,
1760467427.5334022,269,-0.4671428571428571,1.7607692307692309,154.768021978022,95.74045801526718,-160.24427480916032,1.9465648854961832,295.7798165137615,-274.95412844036696,-140.27522935779817,,
1760467427.5441923,270,-0.5965054945054945,1.6529670329670332,156.60784615384617,93.78625954198472,-144.61068702290078,1.9465648854961832,354.4954128440367,-227.9816513761468,-69.81651376146789,,
1760467427.5654712,271,-0.5533846153846155,1.7104615384615385,163.90246153846155,93.78625954198472,-152.42748091603053,1.9465648854961832,413.2110091743119,-227.9816513761468,-116.78899082568807,,
1760467427.5865777,272,-0.5533846153846155,1.7176483516483516,161.9979560439561,74.2442748091603,-152.42748091603053,1.9465648854961832,471.9266055045871,-274.95412844036696,-93.30275229357798,,
1760467427.5971792,273,-0.5893186813186814,1.7176483516483516,158.34705494505494,80.10687022900764,-160.24427480916032,1.9465648854961832,530.6422018348624,-251.4678899082569,-93.30275229357798,,
1760467427.6185288,274,-0.6396263736263736,1.6457802197802198,169.40756043956043,56.65648854961832,-152.42748091603053,1.9465648854961832,589.3577981651376,-227.9816513761468,-93.30275229357798,,
1760467427.6503336,275,-0.4815164835164835,1.688901098901099,165.75665934065935,78.1526717557252,-156.33587786259542,1.9465648854961832,648.0733944954128,-251.4678899082569,-69.81651376146789,,
1760467427.660982,276,-0.6396263736263736,1.8254505494505493,158.51953846153847,93.78625954198472,-140.70229007633588,1.9465648854961832,706.7889908256881,-251.4678899082569,-116.78899082568807,,
1760467427.6821532,277,-0.5461978021978022,1.6745274725274726,167.62523076923077,93.78625954198472,-154.38167938931298,1.9465648854961832,765.5045871559632,-227.9816513761468,-116.78899082568807,,
1760467427.692768,278,-0.5246373626373626,1.8254505494505493,158.4404835164835,82.06106870229007,-150.4732824427481,1.9465648854961832,824.2201834862385,-251.4678899082569,-93.30275229357798,,
1760467427.714032,279,-0.5102637362637363,1.7823296703296705,171.14676923076922,91.83206106870227,-152.42748091603053,1.9465648854961832,882.9357798165138,-251.4678899082569,-140.27522935779817,,
1760467427.7459526,280,-0.6108791208791209,1.6960879120879122,162.04826373626375,70.33587786259542,-146.5648854961832,1.9465648854961832,941.651376146789,-251.4678899082569,-93.30275229357798,,
1760467427.7567055,281,-0.5533846153846155,1.724835164835165,156.5144175824176,82.06106870229007,-158.29007633587787,1.9465648854961832,1000.3669724770642,-204.4954128440367,-69.81651376146789,,
1760467427.777957,282,-0.5174505494505495,1.80389010989011,154.69615384615386,91.83206106870227,-150.4732824427481,1.9465648854961832,1059.0825688073394,-251.4678899082569,-93.30275229357798,,
1760467427.8097198,283,-0.6036923076923078,1.6242197802197802,163.86652747252748,95.74045801526718,-142.65648854961833,1.9465648854961832,1117.798165137615,-274.95412844036696,-140.27522935779817,,
1760467427.8202806,284,-0.6036923076923078,1.5882857142857143,151.08837362637362,80.10687022900764,-150.4732824427481,1.9465648854961832,1176.51376146789,-227.9816513761468,-116.78899082568807,,
1760467427.8414602,285,-0.4455824175824175,1.688901098901099,147.3656043956044,76.19847328244275,-154.38167938931298,1.9465648854961832,1235.2293577981652,-227.9816513761468,-140.27522935779817,,
1760467427.8731508,286,-0.5174505494505495,1.7607692307692309,169.4866153846154,80.10687022900764,-152.42748091603053,1.9465648854961832,1293.9449541284405,-227.9816513761468,-140.27522935779817,,
1760467427.8838365,287,-0.654,1.724835164835165,169.41474725274725,84.01526717557252,-154.38167938931298,1.9465648854961832,1352.6605504587155,-227.9816513761468,-93.30275229357798,,
1760467427.905106,288,-0.6324395604395605,1.7032747252747251,156.58628571428574,89.87786259541984,-140.70229007633588,1.9465648854961832,1411.3761467889908,-227.9816513761468,-93.30275229357798,,
1760467427.9159093,289,-0.5174505494505495,1.6529670329670332,162.10575824175828,99.64885496183206,-162.19847328244273,1.9465648854961832,1470.091743119266,-251.4678899082569,-93.30275229357798,,
1760467427.9371333,290,-0.5174505494505495,1.7895164835164834,165.75665934065935,87.92366412213741,-152.42748091603053,1.9465648854961832,1528.8073394495414,-274.95412844036696,-93.30275229357798,,
1760467427.9688852,291,-0.5246373626373626,1.5451648351648353,165.64885714285717,76.19847328244275,-154.38167938931298,1.9465648854961832,1587.5229357798166,-227.9816513761468,-93.30275229357798,,
1760467427.9796238,292,-0.5030769230769231,1.7320219780219783,156.54316483516484,64.47328244274809,-152.42748091603053,1.9465648854961832,1646.2385321100917,-227.9816513761468,-163.76146788990826,,
1760467428.000704,293,-0.5318241758241758,1.6745274725274726,163.9168351648352,87.92366412213741,-152.42748091603053,1.9465648854961832,1704.954128440367,-274.95412844036696,-116.78899082568807,,
1760467428.0218372,294,-0.7186813186813188,1.6817142857142855,162.16325274725278,89.87786259541984,-146.5648854961832,1.9465648854961832,1763.6697247706422,-251.4678899082569,-69.81651376146789,,
1760467428.0325074,295,-0.5318241758241758,1.767956043956044,174.9917142857143,105.5114503816794,-148.51908396946564,1.9465648854961832,1822.3853211009173,-274.95412844036696,-93.30275229357798,,
1760467428.053403,296,-0.5102637362637363,1.609846153846154,167.64679120879123,87.92366412213741,-154.38167938931298,1.9465648854961832,1881.1009174311928,-227.9816513761468,-116.78899082568807,,
1760467428.0640726,297,-0.4887032967032967,1.6529670329670332,152.90663736263735,91.83206106870227,-154.38167938931298,1.9465648854961832,1939.816513761468,-204.4954128440367,-69.81651376146789,,
1760467428.0957055,298,-0.5605714285714286,1.688901098901099,162.10575824175828,72.29007633587786,-160.24427480916032,1.9465648854961832,1998.532110091743,-251.4678899082569,-93.30275229357798,,
1760467428.106338,299,-0.5677582417582419,1.7967032967032968,156.5216043956044,87.92366412213741,-144.61068702290078,1.9465648854961832,2057.2477064220184,-274.95412844036696,-69.81651376146789,,
1760467428.1275206,300,-0.5102637362637363,1.7104615384615385,160.21562637362638,95.74045801526718,-158.29007633587787,1.9465648854961832,2115.9633027522937,-227.9816513761468,-140.27522935779817,,
1760467428.1591372,301,-0.5965054945054945,1.688901098901099,158.3758021978022,85.96946564885496,-154.38167938931298,1.9465648854961832,2174.678899082569,-274.95412844036696,-116.78899082568807,,
1760467428.169822,302,-0.6324395604395605,1.5810989010989014,171.31925274725273,76.19847328244275,-152.42748091603053,1.9465648854961832,2233.394495412844,-204.4954128440367,-93.30275229357798,,
1760467428.190956,303,-0.5605714285714286,1.6960879120879122,154.7105274725275,82.06106870229007,-162.19847328244273,1.9465648854961832,2292.1100917431195,-227.9816513761468,-140.27522935779817,,
1760467428.201519,304,-0.5677582417582419,1.609846153846154,160.2803076923077,64.47328244274809,-154.38167938931298,1.9465648854961832,2350.8256880733948,-251.4678899082569,-140.27522935779817,,
1760467428.2228873,305,-0.4671428571428571,1.6457802197802198,163.98151648351651,93.78625954198472,-154.38167938931298,1.9465648854961832,2409.5412844036696,-298.4403669724771,-93.30275229357798,,
1760467428.25464,306,-0.5821318681318681,1.7320219780219783,160.22281318681317,80.10687022900764,-152.42748091603053,1.9465648854961832,2468.256880733945,-204.4954128440367,-69.81651376146789,,
1760467428.265319,307,-0.6036923076923078,1.6457802197802198,167.5318021978022,103.55725190839696,-146.5648854961832,1.9465648854961832,2526.97247706422,-204.4954128440367,-140.27522935779817,,
1760467428.2864623,308,-0.5605714285714286,1.6745274725274726,160.22281318681317,82.06106870229007,-138.74809160305344,1.9465648854961832,2585.6880733944954,-227.9816513761468,-93.30275229357798,,
1760467428.3183424,309,-0.6036923076923078,1.7895164835164834,173.25250549450553,82.06106870229007,-156.33587786259542,1.9465648854961832,2644.4036697247707,-251.4678899082569,-93.30275229357798,,
1760467428.32909,310,-0.3880879120879121,1.7176483516483516,156.60784615384617,85.96946564885496,-156.33587786259542,1.9465648854961832,2703.119266055046,-227.9816513761468,-116.78899082568807,,
1760467428.3502803,311,-0.5893186813186814,1.7176483516483516,169.41474725274725,84.01526717557252,-148.51908396946564,1.9465648854961832,2761.834862385321,-204.4954128440367,-93.30275229357798,,
1760467428.3714342,312,1.3295604395604397,0.0215604395604395,153.0216263736264,95.74045801526718,-142.65648854961833,1.9465648854961832,2820.5504587155965,-227.9816513761468,-93.30275229357798,,
1760467428.3821864,313,-0.5461978021978022,1.7823296703296705,160.26593406593406,87.92366412213741,-160.24427480916032,1.9465648854961832,2879.266055045872,-181.0091743119266,-140.27522935779817,,
1760467428.4139092,314,-0.6036923076923078,1.6385934065934065,165.87164835164836,89.87786259541984,-150.4732824427481,1.9465648854961832,2937.981651376147,-227.9816513761468,-69.81651376146789,,
1760467428.4244957,315,-0.574945054945055,1.7607692307692309,171.28331868131866,84.01526717557252,-160.24427480916032,1.9465648854961832,2996.6972477064223,-227.9816513761468,-69.81651376146789,,
1760467428.445801,316,-0.5893186813186814,1.573912087912088,169.36443956043956,84.01526717557252,-154.38167938931298,1.9465648854961832,-2957.064220183486,-227.9816513761468,-93.30275229357798,,
1760467428.4773598,317,-0.459956043956044,1.6529670329670332,162.08419780219782,84.01526717557252,-154.38167938931298,1.9465648854961832,-2898.348623853211,-251.4678899082569,-116.78899082568807,,
1760467428.4879956,318,-0.4383956043956044,1.724835164835165,158.34705494505494,105.5114503816794,-146.5648854961832,1.9465648854961832,-2839.633027522936,-251.4678899082569,-93.30275229357798,,
1760467428.5093424,319,-0.6971208791208792,1.7392087912087917,158.4836043956044,93.78625954198472,-156.33587786259542,1.9465648854961832,-2780.9174311926604,-204.4954128440367,-93.30275229357798,,
1760467428.520024,320,-0.5461978021978022,1.7320219780219783,154.7608351648352,80.10687022900764,-154.38167938931298,1.9465648854961832,-2722.201834862385,-251.4678899082569,-93.30275229357798,,
1760467428.5413527,321,-0.4743296703296704,1.631406593406593,176.78123076923077,80.10687022900764,-164.15267175572518,1.9465648854961832,-2663.48623853211,-251.4678899082569,-93.30275229357798,,
1760467428.5731103,322,-0.6468131868131869,1.7032747252747251,162.0698241758242,80.10687022900764,-158.29007633587787,1.9465648854961832,-2604.7706422018346,-251.4678899082569,-116.78899082568807,,
1760467428.5837424,323,-0.5318241758241758,1.631406593406593,162.0195164835165,85.96946564885496,-152.42748091603053,1.9465648854961832,-2546.0550458715597,-251.4678899082569,-116.78899082568807,,
1760467428.5944574,324,-0.6755604395604397,1.6745274725274726,162.14887912087914,84.01526717557252,-156.33587786259542,1.9465648854961832,-2487.3394495412845,-274.95412844036696,-93.30275229357798,,
1760467428.626155,325,-0.539010989010989,1.7392087912087917,156.59347252747253,99.64885496183206,-150.4732824427481,1.9465648854961832,-2428.623853211009,-274.95412844036696,-116.78899082568807,,
1760467428.6369002,326,-0.539010989010989,1.7535824175824175,167.71147252747252,91.83206106870227,-156.33587786259542,1.9465648854961832,-2369.908256880734,-227.9816513761468,-116.78899082568807,,
1760467428.65814,327,-0.5102637362637363,1.6385934065934065,167.61804395604395,76.19847328244275,-156.33587786259542,1.9465648854961832,-2311.192660550458,-227.9816513761468,-69.81651376146789,,
1760467428.6687677,328,-0.4887032967032967,1.7320219780219783,149.2772967032967,82.06106870229007,-148.51908396946564,1.9465648854961832,-2252.477064220184,-274.95412844036696,-116.78899082568807,,
1760467428.690028,329,-0.5893186813186814,1.5954725274725277,169.43630769230768,80.10687022900764,-150.4732824427481,1.9465648854961832,-2193.761467889908,-204.4954128440367,-116.78899082568807,,
1760467428.7218337,330,-0.5318241758241758,1.6745274725274726,163.95995604395603,89.87786259541984,-150.4732824427481,1.9465648854961832,-2135.045871559633,-251.4678899082569,-22.84403669724771,,
1760467428.7325065,331,-0.5821318681318681,1.7463956043956046,156.57909890109892,91.83206106870227,-162.19847328244273,1.9465648854961832,-2076.330275229357,-251.4678899082569,-93.30275229357798,,
1760467428.7537315,332,-0.5605714285714286,1.7104615384615385,175.08514285714287,101.6030534351145,-162.19847328244273,1.9465648854961832,-2017.6146788990825,-251.4678899082569,-93.30275229357798,,
1760467428.7644477,333,-0.5605714285714286,1.6745274725274726,167.5821098901099,91.83206106870227,-150.4732824427481,1.9465648854961832,-1958.8990825688077,-227.9816513761468,-163.76146788990826,,
1760467428.7961702,334,-0.5533846153846155,1.6529670329670332,152.90663736263735,84.01526717557252,-152.42748091603053,1.9465648854961832,-1900.183486238532,-227.9816513761468,-116.78899082568807,,
1760467428.8277864,335,-0.5533846153846155,1.7320219780219783,169.47942857142857,99.64885496183206,-140.70229007633588,1.9465648854961832,-1841.467889908257,-251.4678899082569,-93.30275229357798,,
1760467428.8384464,336,-0.5461978021978022,1.7320219780219783,165.67760439560442,80.10687022900764,-160.24427480916032,1.9465648854961832,-1782.7522935779818,-251.4678899082569,-140.27522935779817,,
1760467428.8597045,337,-0.5174505494505495,1.6817142857142855,169.53692307692307,85.96946564885496,-148.51908396946564,1.9465648854961832,-1724.0366972477066,-274.95412844036696,-116.78899082568807,,
1760467428.8911967,338,-0.5318241758241758,1.7320219780219783,156.55753846153848,78.1526717557252,-154.38167938931298,1.9465648854961832,-1665.3211009174313,-227.9816513761468,-93.30275229357798,,
1760467428.901972,339,-0.5821318681318681,1.7823296703296705,171.21145054945055,78.1526717557252,-144.61068702290078,1.9465648854961832,-1606.605504587156,-251.4678899082569,-116.78899082568807,,
1760467428.912795,340,-0.7043076923076923,1.7320219780219783,160.2874945054945,74.2442748091603,-146.5648854961832,1.9465648854961832,-1547.8899082568807,-251.4678899082569,-69.81651376146789,,
1760467428.9235806,341,-0.4958901098901099,1.6601538461538463,156.60065934065935,91.83206106870227,-148.51908396946564,1.9465648854961832,-1489.1743119266057,-227.9816513761468,-140.27522935779817,,
1760467428.944523,342,-0.5461978021978022,1.6673406593406594,173.03690109890113,84.01526717557252,-156.33587786259542,1.9465648854961832,-1430.4587155963302,-274.95412844036696,-69.81651376146789,,
1760467428.9762945,343,-0.5893186813186814,1.7751428571428571,154.768021978022,93.78625954198472,-156.33587786259542,1.9465648854961832,-1371.743119266055,-227.9816513761468,-116.78899082568807,,
1760467428.9870334,344,-0.6971208791208792,1.6960879120879122,165.70635164835167,80.10687022900764,-152.42748091603053,1.9465648854961832,-1313.02752293578,-251.4678899082569,-140.27522935779817,,
1760467429.008137,345,-0.5533846153846155,1.6457802197802198,160.23,74.2442748091603,-140.70229007633588,1.9465648854961832,-1254.3119266055046,-274.95412844036696,-116.78899082568807,,
1760467429.03988,346,-0.4958901098901099,1.631406593406593,145.43235164835167,78.1526717557252,-148.51908396946564,1.9465648854961832,-1195.596330275229,-251.4678899082569,-69.81651376146789,,
1760467429.0505223,347,-0.4815164835164835,1.7535824175824175,169.42193406593407,87.92366412213741,-154.38167938931298,1.9465648854961832,-1136.880733944954,-227.9816513761468,-116.78899082568807,,
1760467429.07189,348,-0.4743296703296704,1.6745274725274726,160.23,95.74045801526718,-148.51908396946564,1.9465648854961832,-1078.1651376146788,-227.9816513761468,-116.78899082568807,,
1760467429.1035652,349,-0.5605714285714286,1.6385934065934065,171.36956043956044,87.92366412213741,-148.51908396946564,1.9465648854961832,-1019.4495412844036,-251.4678899082569,-93.30275229357798,,
1760467429.114226,350,-0.5533846153846155,1.6817142857142855,156.63659340659342,87.92366412213741,-154.38167938931298,1.9465648854961832,-960.7339449541284,-204.4954128440367,-116.78899082568807,,
1760467429.1353858,351,-0.4455824175824175,1.8182637362637364,163.8737142857143,78.1526717557252,-162.19847328244273,1.9465648854961832,-902.0183486238532,-251.4678899082569,-93.30275229357798,,
1760467429.1460202,352,-0.5461978021978022,1.8182637362637364,163.93839560439562,78.1526717557252,-152.42748091603053,1.9465648854961832,-843.3027522935779,-251.4678899082569,-93.30275229357798,,
1760467429.1672676,353,-0.6036923076923078,1.7823296703296705,173.11595604395606,84.01526717557252,-158.29007633587787,1.9465648854961832,-784.5871559633027,-227.9816513761468,-46.3302752293578,,
1760467429.1989,354,-0.5821318681318681,1.631406593406593,145.60483516483518,107.46564885496184,-156.33587786259542,1.9465648854961832,-725.8715596330276,-251.4678899082569,-116.78899082568807,,
1760467429.2096136,355,-0.5461978021978022,1.7032747252747251,156.56472527472528,91.83206106870227,-156.33587786259542,1.9465648854961832,-667.1559633027523,-227.9816513761468,-116.78899082568807,,
1760467429.2308445,356,-0.4168351648351648,1.7751428571428571,162.09857142857146,87.92366412213741,-160.24427480916032,1.9465648854961832,-608.440366972477,-251.4678899082569,-69.81651376146789,,
1760467429.2415674,357,-0.5533846153846155,1.5882857142857143,158.31830769230768,70.33587786259542,-152.42748091603053,1.9465648854961832,-549.7247706422019,-204.4954128440367,-93.30275229357798,,
1760467429.2627742,358,-0.5174505494505495,1.7607692307692309,160.20843956043956,80.10687022900764,-146.5648854961832,1.9465648854961832,-491.0091743119266,-227.9816513761468,-93.30275229357798,,
1760467429.2840564,359,-0.4887032967032967,1.767956043956044,163.9312087912088,82.06106870229007,-148.51908396946564,1.9465648854961832,-432.29357798165137,-227.9816513761468,-46.3302752293578,,
1760467429.2948816,360,-0.6252527472527473,1.631406593406593,163.8593406593407,107.46564885496184,-150.4732824427481,1.9465648854961832,-373.57798165137615,-227.9816513761468,-116.78899082568807,,
1760467429.326727,361,-0.4958901098901099,1.6673406593406594,160.21562637362638,91.83206106870227,-148.51908396946564,1.9465648854961832,-314.86238532110093,-204.4954128440367,-140.27522935779817,,
1760467429.347927,362,-0.574945054945055,1.7392087912087917,145.57608791208793,91.83206106870227,-162.19847328244273,1.9465648854961832,-256.14678899082566,-251.4678899082569,-163.76146788990826,,
1760467429.358868,363,-0.5174505494505495,1.7320219780219783,167.54617582417583,80.10687022900764,-164.15267175572518,1.9465648854961832,-197.4311926605505,-251.4678899082569,-163.76146788990826,,
1760467429.3799584,364,-0.4815164835164835,1.6242197802197802,163.93839560439562,76.19847328244275,-162.19847328244273,1.9465648854961832,-138.71559633027525,-204.4954128440367,-93.30275229357798,,
1760467429.4116216,365,-0.4887032967032967,1.7104615384615385,160.27312087912088,93.78625954198472,-150.4732824427481,1.9465648854961832,-80.0,-227.9816513761468,-116.78899082568807,,
1760467429.4223728,366,-0.574945054945055,1.6960879120879122,154.6674065934066,89.87786259541984,-156.33587786259542,1.9465648854961832,-21.28440366972477,-227.9816513761468,-93.30275229357798,,
1760467429.4437425,367,-0.5174505494505495,1.6529670329670332,176.83153846153846,84.01526717557252,-146.5648854961832,1.9465648854961832,37.43119266055046,-298.348623853211,-69.81651376146789,,
1760467429.4545076,368,-0.4887032967032967,1.7607692307692309,132.63982417582417,80.10687022900764,-156.33587786259542,1.9465648854961832,96.1467889908257,-274.86238532110093,-116.78899082568807,,
1760467429.475737,369,-0.5174505494505495,1.6529670329670332,167.55336263736265,91.83206106870227,-150.4732824427481,1.9465648854961832,154.86238532110093,-227.88990825688077,-140.27522935779817,,
1760467429.5072622,370,-0.4671428571428571,1.631406593406593,154.74646153846157,95.74045801526718,-144.61068702290078,1.9465648854961832,213.57798165137612,-227.88990825688077,-93.30275229357798,,
1760467429.5179417,371,-0.4527692307692308,1.6960879120879122,160.27312087912088,82.06106870229007,-142.65648854961833,1.9465648854961832,272.29357798165137,-227.88990825688077,-140.27522935779817,,
1760467429.539359,372,-0.6827472527472528,1.6026593406593408,158.46923076923076,95.74045801526718,-146.5648854961832,1.9465648854961832,331.0091743119266,-251.37614678899084,-93.30275229357798,,
1760467429.5709808,373,-0.5533846153846155,1.7895164835164834,162.09857142857146,82.06106870229007,-156.33587786259542,1.9465648854961832,389.72477064220186,-227.88990825688077,-140.27522935779817,,
1760467429.5815682,374,-0.5246373626373626,1.688901098901099,174.9414065934066,87.92366412213741,-152.42748091603053,1.9465648854961832,448.440366972477,-227.88990825688077,-69.81651376146789,,
1760467429.6030428,375,-0.574945054945055,1.7320219780219783,160.30186813186813,76.19847328244275,-150.4732824427481,1.9465648854961832,507.1559633027522,-227.88990825688077,-93.30275229357798,,
1760467429.613701,376,-0.5965054945054945,1.7535824175824175,176.8027912087912,87.92366412213741,-148.51908396946564,1.9465648854961832,565.8715596330275,-227.88990825688077,-116.78899082568807,,
1760467429.634981,377,-0.5246373626373626,1.7823296703296705,158.36142857142858,76.19847328244275,-156.33587786259542,1.9465648854961832,624.5871559633027,-251.37614678899084,-93.30275229357798,,
1760467429.6667607,378,-0.6036923076923078,1.7895164835164834,143.5997142857143,97.6946564885496,-150.4732824427481,1.9465648854961832,683.3027522935779,-227.88990825688077,-116.78899082568807,,
1760467429.6774445,379,-0.7546153846153847,1.7176483516483516,163.95276923076926,76.19847328244275,-144.61068702290078,1.9465648854961832,742.0183486238532,-227.88990825688077,-93.30275229357798,,
1760467429.6881554,380,-0.4815164835164835,1.573912087912088,147.4230989010989,74.2442748091603,-152.42748091603053,1.9465648854961832,800.7339449541284,-204.40366972477065,-93.30275229357798,,
1760467429.719838,381,-0.5965054945054945,1.6817142857142855,171.2976923076923,72.29007633587786,-158.29007633587787,1.9465648854961832,859.4495412844036,-251.37614678899084,-116.78899082568807,,
1760467429.7304733,382,-0.4958901098901099,1.6960879120879122,162.04826373626375,85.96946564885496,-154.38167938931298,1.9465648854961832,918.1651376146788,-227.88990825688077,-140.27522935779817,,
1760467429.7516234,383,-0.539010989010989,1.6960879120879122,162.1201318681319,91.83206106870227,-148.51908396946564,1.9465648854961832,976.8807339449542,-251.37614678899084,-46.3302752293578,,
1760467429.7624762,384,-0.4887032967032967,1.7032747252747251,160.30905494505495,91.83206106870227,-158.29007633587787,1.9465648854961832,1035.596330275229,-227.88990825688077,-69.81651376146789,,
1760467429.7838106,385,-0.4671428571428571,1.8182637362637364,152.88507692307692,84.01526717557252,-156.33587786259542,1.9465648854961832,1094.3119266055046,-227.88990825688077,-93.30275229357798,,
1760467429.815493,386,-0.5461978021978022,1.767956043956044,154.7608351648352,97.6946564885496,-152.42748091603053,1.9465648854961832,1153.02752293578,-251.37614678899084,-69.81651376146789,,
1760467429.8262022,387,-0.5821318681318681,1.7392087912087917,169.45786813186814,82.06106870229007,-156.33587786259542,1.9465648854961832,1211.7431192660551,-227.88990825688077,-116.78899082568807,,
1760467429.8472774,388,-0.5174505494505495,1.7392087912087917,173.11595604395606,84.01526717557252,-152.42748091603053,1.9465648854961832,1270.4587155963302,-251.37614678899084,-93.30275229357798,,
1760467429.8789492,389,-0.5533846153846155,1.8182637362637364,163.83778021978023,87.92366412213741,-152.42748091603053,1.9465648854961832,1329.1743119266057,-251.37614678899084,-116.78899082568807,,
1760467429.8897066,390,-0.4383956043956044,1.6960879120879122,163.95276923076926,95.74045801526718,-154.38167938931298,1.9465648854961832,1387.8899082568807,-227.88990825688077,-116.78899082568807,,
1760467429.9113035,391,-0.4383956043956044,1.7751428571428571,158.3254945054945,84.01526717557252,-160.24427480916032,1.9465648854961832,1446.605504587156,-204.40366972477065,-140.27522935779817,,
1760467429.9219985,392,-0.5893186813186814,1.631406593406593,163.89527472527473,84.01526717557252,-158.29007633587787,1.9465648854961832,1505.3211009174313,-251.37614678899084,-93.30275229357798,,
1760467429.9433298,393,-0.5030769230769231,1.6026593406593408,171.27613186813187,70.33587786259542,-148.51908396946564,1.9465648854961832,1564.0366972477063,-251.37614678899084,-93.30275229357798,,
1760467429.9750032,394,-0.5246373626373626,1.6529670329670332,143.62846153846155,85.96946564885496,-152.42748091603053,1.9465648854961832,1622.7522935779816,-251.37614678899084,-140.27522935779817,,
1760467429.9856155,395,-0.5246373626373626,1.6960879120879122,158.4404835164835,84.01526717557252,-154.38167938931298,1.9465648854961832,1681.467889908257,-227.88990825688077,-93.30275229357798,,
1760467430.006984,396,-0.5174505494505495,1.7895164835164834,145.60483516483518,87.92366412213741,-154.38167938931298,1.9465648854961832,1740.1834862385322,-274.86238532110093,-116.78899082568807,,
1760467430.0388548,397,-0.4671428571428571,1.688901098901099,158.30393406593407,85.96946564885496,-152.42748091603053,1.9465648854961832,1798.8990825688074,-251.37614678899084,-116.78899082568807,,
1760467430.0494256,398,-0.5461978021978022,1.7320219780219783,156.53597802197802,85.96946564885496,-148.51908396946564,1.9465648854961832,1857.6146788990827,-227.88990825688077,-69.81651376146789,,
1760467430.0704174,399,-0.4671428571428571,1.7895164835164834,161.94764835164838,80.10687022900764,-148.51908396946564,1.9465648854961832,1916.3302752293575,-251.37614678899084,-69.81651376146789,,
1760467430.0809827,400,-0.4743296703296704,1.6745274725274726,163.89527472527473,85.96946564885496,-144.61068702290078,1.9465648854961832,1975.045871559633,-227.88990825688077,-93.30275229357798,,
1760467430.102357,401,-0.5677582417582419,1.688901098901099,147.32248351648352,80.10687022900764,-154.38167938931298,1.9465648854961832,2033.7614678899083,-274.86238532110093,-69.81651376146789,,
1760467430.133985,402,-0.5461978021978022,1.6242197802197802,158.3758021978022,68.38167938931298,-154.38167938931298,1.9465648854961832,2092.477064220184,-274.86238532110093,-116.78899082568807,,
1760467430.1447203,403,-0.5461978021978022,1.6960879120879122,162.1201318681319,84.01526717557252,-138.74809160305344,1.9465648854961832,2151.192660550458,-251.37614678899084,-69.81651376146789,,
1760467430.1659544,404,-0.4958901098901099,1.6385934065934065,151.13149450549452,93.78625954198472,-154.38167938931298,1.9465648854961832,2209.908256880734,-227.88990825688077,-116.78899082568807,,
1760467430.1976302,405,-0.6252527472527473,1.7607692307692309,152.91382417582415,84.01526717557252,-148.51908396946564,1.9465648854961832,2268.623853211009,-227.88990825688077,-116.78899082568807,,
1760467430.2084672,406,-0.5030769230769231,1.8326373626373629,167.6970989010989,87.92366412213741,-146.5648854961832,1.9465648854961832,2327.3394495412845,-251.37614678899084,-116.78899082568807,,
1760467430.2296429,407,-0.4815164835164835,1.7176483516483516,160.12938461538462,80.10687022900764,-146.5648854961832,1.9465648854961832,2386.05504587156,-227.88990825688077,-116.78899082568807,,
1760467430.2403705,408,-0.4743296703296704,1.631406593406593,151.10274725274726,80.10687022900764,-158.29007633587787,1.9465648854961832,2444.770642201835,-251.37614678899084,-93.30275229357798,,
1760467430.261572,409,-0.5677582417582419,1.724835164835165,158.46923076923076,80.10687022900764,-148.51908396946564,1.9465648854961832,2503.4862385321103,-251.37614678899084,-116.78899082568807,,
1760467430.2723172,410,-0.539010989010989,1.609846153846154,163.90964835164837,87.92366412213741,-138.74809160305344,1.9465648854961832,2562.2018348623856,-251.37614678899084,-69.81651376146789,,
1760467430.2935452,411,-0.5677582417582419,1.7320219780219783,160.16531868131867,97.6946564885496,-154.38167938931298,1.9465648854961832,2620.917431192661,-227.88990825688077,-93.30275229357798,,
1760467430.3251002,412,-0.5605714285714286,1.6026593406593408,160.27312087912088,78.1526717557252,-156.33587786259542,1.9465648854961832,2679.633027522936,-180.91743119266056,-69.81651376146789,,
1760467430.3357415,413,-0.5318241758241758,1.5810989010989014,178.62105494505494,76.19847328244275,-162.19847328244273,1.9465648854961832,2738.348623853211,-251.37614678899084,-116.78899082568807,,
1760467430.3570192,414,-0.5318241758241758,1.617032967032967,162.04826373626375,85.96946564885496,-148.51908396946564,1.9465648854961832,2797.064220183486,-251.37614678899084,-93.30275229357798,,
1760467430.399126,415,-0.4815164835164835,1.688901098901099,171.1970769230769,87.92366412213741,-146.5648854961832,1.9465648854961832,2855.779816513761,-227.88990825688077,-116.78899082568807,,
1760467430.4099236,416,1.3151868131868132,0.0071868131868131,158.47641758241758,93.78625954198472,-154.38167938931298,1.9465648854961832,2914.4954128440368,-251.37614678899084,-116.78899082568807,,
1760467430.4207785,417,-0.5677582417582419,1.7895164835164834,152.85632967032967,80.10687022900764,-160.24427480916032,1.9465648854961832,2973.211009174312,-227.88990825688077,-93.30275229357798,,
1760467430.431424,418,-0.5965054945054945,1.80389010989011,158.45485714285715,89.87786259541984,-158.29007633587787,1.9465648854961832,-2980.550458715596,-227.88990825688077,-93.30275229357798,,
1760467430.4528086,419,-0.4743296703296704,1.7751428571428571,158.39017582417583,84.01526717557252,-144.61068702290078,1.9465648854961832,-2921.834862385321,-251.37614678899084,-69.81651376146789,,
1760467430.4635217,420,-0.5030769230769231,1.7967032967032968,165.79978021978025,84.01526717557252,-148.51908396946564,1.9465648854961832,-2863.119266055046,-251.37614678899084,-116.78899082568807,,
1760467430.4954522,421,-0.5821318681318681,1.5882857142857143,164.01026373626377,80.10687022900764,-154.38167938931298,1.9465648854961832,-2804.4036697247707,-274.86238532110093,-116.78899082568807,,
1760467430.527392,422,-0.5677582417582419,1.7104615384615385,169.4434945054945,89.87786259541984,-150.4732824427481,1.9465648854961832,-2745.6880733944954,-227.88990825688077,-93.30275229357798,,
1760467430.5379815,423,-0.5605714285714286,1.7895164835164834,152.84914285714285,97.6946564885496,-148.51908396946564,1.9465648854961832,-2686.97247706422,-227.88990825688077,-93.30275229357798,,
1760467430.559122,424,-0.5030769230769231,1.7823296703296705,167.60367032967034,84.01526717557252,-152.42748091603053,1.9465648854961832,-2628.256880733945,-274.86238532110093,-140.27522935779817,,
1760467430.580257,425,-0.6683736263736263,1.7535824175824175,156.615032967033,66.42748091603053,-156.33587786259542,1.9465648854961832,-2569.5412844036696,-274.86238532110093,-116.78899082568807,,
1760467430.5910835,426,-0.5677582417582419,1.724835164835165,167.56773626373626,74.2442748091603,-152.42748091603053,1.9465648854961832,-2510.8256880733943,-227.88990825688077,-93.30275229357798,,
1760467430.622979,427,-0.5893186813186814,1.7751428571428571,162.1201318681319,91.83206106870227,-144.61068702290078,1.9465648854961832,-2452.110091743119,-251.37614678899084,-69.81651376146789,,
1760467430.633595,428,-0.5102637362637363,1.6817142857142855,149.17668131868132,105.5114503816794,-150.4732824427481,1.9465648854961832,-2393.394495412844,-204.40366972477065,-116.78899082568807,,
1760467430.6442847,429,-0.6324395604395605,1.688901098901099,169.47942857142857,85.96946564885496,-144.61068702290078,1.9465648854961832,-2334.6788990825685,-251.37614678899084,-140.27522935779817,,
1760467430.676144,430,-0.5030769230769231,1.7032747252747251,160.09345054945055,78.1526717557252,-150.4732824427481,1.9465648854961832,-2275.963302752293,-251.37614678899084,-187.24770642201835,,
1760467430.6867452,431,-0.5174505494505495,1.7320219780219783,158.45485714285715,84.01526717557252,-152.42748091603053,1.9465648854961832,-2217.2477064220184,-204.40366972477065,-93.30275229357798,,
1760467430.70791,432,-0.5246373626373626,1.7032747252747251,163.8593406593407,85.96946564885496,-144.61068702290078,1.9465648854961832,-2158.532110091743,-251.37614678899084,-116.78899082568807,,
1760467430.718779,433,-0.4887032967032967,1.7895164835164834,162.09138461538464,87.92366412213741,-140.70229007633588,1.9465648854961832,-2099.816513761468,-251.37614678899084,-116.78899082568807,,
1760467430.7505083,434,-0.5533846153846155,1.6601538461538463,165.80696703296704,91.83206106870227,-162.19847328244273,1.9465648854961832,-2041.1009174311928,-227.88990825688077,-140.27522935779817,,
1760467430.772143,435,-0.4312087912087912,1.688901098901099,151.15305494505495,93.78625954198472,-148.51908396946564,1.9465648854961832,-1982.3853211009173,-251.37614678899084,-163.76146788990826,,
1760467430.782752,436,-0.654,1.7535824175824175,167.62523076923077,85.96946564885496,-152.42748091603053,1.9465648854961832,-1923.6697247706425,-251.37614678899084,-93.30275229357798,,
1760467430.8141756,437,-0.5461978021978022,1.724835164835165,171.33362637362637,74.2442748091603,-154.38167938931298,1.9465648854961832,-1864.9541284403672,-274.86238532110093,-116.78899082568807,,
1760467430.824923,438,-0.5246373626373626,1.6457802197802198,160.26593406593406,68.38167938931298,-152.42748091603053,1.9465648854961832,-1806.238532110092,-251.37614678899084,-116.78899082568807,,
1760467430.8356242,439,-0.5605714285714286,1.7463956043956046,160.32342857142856,95.74045801526718,-150.4732824427481,1.9465648854961832,-1747.5229357798166,-227.88990825688077,-93.30275229357798,,
1760467430.8673477,440,-0.4958901098901099,1.6960879120879122,169.41474725274725,87.92366412213741,-154.38167938931298,1.9465648854961832,-1688.8073394495414,-251.37614678899084,-116.78899082568807,,
1760467430.8780415,441,-0.5821318681318681,1.7176483516483516,163.95276923076926,93.78625954198472,-160.24427480916032,1.9465648854961832,-1630.0917431192663,-251.37614678899084,-93.30275229357798,,
1760467430.899314,442,-0.5533846153846155,1.6385934065934065,162.15606593406596,80.10687022900764,-140.70229007633588,1.9465648854961832,-1571.3761467889908,-227.88990825688077,-69.81651376146789,,
1760467430.9308164,443,-0.5246373626373626,1.7320219780219783,169.500989010989,82.06106870229007,-156.33587786259542,1.9465648854961832,-1512.6605504587155,-204.40366972477065,-140.27522935779817,,
1760467430.9624827,444,-0.4887032967032967,1.688901098901099,162.09138461538464,80.10687022900764,-158.29007633587787,1.9465648854961832,-1453.9449541284405,-274.86238532110093,-140.27522935779817,,
1760467430.9733458,445,-0.5965054945054945,1.6385934065934065,165.7422857142857,93.78625954198472,-148.51908396946564,1.9465648854961832,-1395.2293577981652,-227.88990825688077,-116.78899082568807,,
1760467430.9945643,446,-0.5677582417582419,1.6529670329670332,163.90246153846155,93.78625954198472,-146.5648854961832,1.9465648854961832,-1336.51376146789,-251.37614678899084,-140.27522935779817,,
1760467431.0052087,447,-0.5605714285714286,1.631406593406593,162.10575824175828,97.6946564885496,-154.38167938931298,1.9465648854961832,-1277.798165137615,-180.91743119266056,-69.81651376146789,,
1760467431.0264642,448,-0.5821318681318681,1.7967032967032968,165.72072527472528,70.33587786259542,-140.70229007633588,1.9465648854961832,-1219.0825688073394,-274.86238532110093,-116.78899082568807,,
1760467431.03714,449,-0.6108791208791209,1.80389010989011,169.45786813186814,60.56488549618321,-146.5648854961832,1.9465648854961832,-1160.366972477064,-204.40366972477065,-93.30275229357798,,
1760467431.058375,450,-0.539010989010989,1.6242197802197802,173.17345054945056,89.87786259541984,-142.65648854961833,1.9465648854961832,-1101.6513761467888,-274.86238532110093,-93.30275229357798,,
1760467431.0901456,451,-0.5677582417582419,1.6385934065934065,152.8707032967033,89.87786259541984,-136.793893129771,1.9465648854961832,-1042.9357798165138,-251.37614678899084,-69.81651376146789,,
1760467431.1007752,452,-0.5677582417582419,1.8182637362637364,165.71353846153846,95.74045801526718,-160.24427480916032,1.9465648854961832,-984.2201834862384,-204.40366972477065,-93.30275229357798,,
1760467431.1221085,453,-0.5318241758241758,1.6529670329670332,156.5287912087912,87.92366412213741,-154.38167938931298,1.9465648854961832,-925.5045871559632,-251.37614678899084,-93.30275229357798,,
1760467431.1537886,454,-0.5246373626373626,1.6817142857142855,165.79978021978025,84.01526717557252,-146.5648854961832,1.9465648854961832,-866.788990825688,-251.37614678899084,-93.30275229357798,,
1760467431.1643517,455,-0.6468131868131869,1.6673406593406594,163.8162197802198,78.1526717557252,-148.51908396946564,1.9465648854961832,-808.0733944954128,-204.40366972477065,-93.30275229357798,,
1760467431.18551,456,-0.5533846153846155,1.6026593406593408,163.9743296703297,72.29007633587786,-146.5648854961832,1.9465648854961832,-749.3577981651376,-298.348623853211,-163.76146788990826,,
1760467431.1961958,457,-0.5965054945054945,1.6601538461538463,151.10274725274726,84.01526717557252,-154.38167938931298,1.9465648854961832,-690.6422018348624,-251.37614678899084,-93.30275229357798,,
1760467431.2175465,458,-0.539010989010989,1.6673406593406594,158.47641758241758,95.74045801526718,-154.38167938931298,1.9465648854961832,-631.9266055045872,-298.348623853211,-93.30275229357798,,
1760467431.2492309,459,-0.4815164835164835,1.7104615384615385,163.90964835164837,89.87786259541984,-154.38167938931298,1.9465648854961832,-573.2110091743119,-227.88990825688077,-116.78899082568807,,
1760467431.2600205,460,-0.5174505494505495,1.6529670329670332,158.4404835164835,78.1526717557252,-142.65648854961833,1.9465648854961832,-514.4954128440367,-204.40366972477065,-93.30275229357798,,
1760467431.2810726,461,-0.5246373626373626,1.7751428571428571,174.95578021978022,78.1526717557252,-140.70229007633588,1.9465648854961832,-455.7798165137615,-251.37614678899084,-116.78899082568807,,
1760467431.291879,462,-0.5965054945054945,1.6960879120879122,160.25156043956045,85.96946564885496,-146.5648854961832,1.9465648854961832,-397.0642201834862,-274.86238532110093,-93.30275229357798,,
1760467431.313201,463,-0.5821318681318681,1.7751428571428571,163.84496703296705,95.74045801526718,-130.93129770992363,1.9465648854961832,-338.348623853211,-227.88990825688077,-116.78899082568807,,
1760467431.3239872,464,-0.6396263736263736,1.7032747252747251,140.0063076923077,91.83206106870227,-148.51908396946564,1.9465648854961832,-279.6330275229358,-227.88990825688077,-69.81651376146789,,
1760467431.3451831,465,-0.539010989010989,1.6960879120879122,160.25874725274724,82.06106870229007,-140.70229007633588,1.9465648854961832,-220.91743119266053,-227.88990825688077,-93.30275229357798,,
1760467431.376876,466,-0.5461978021978022,1.6960879120879122,162.10575824175828,82.06106870229007,-154.38167938931298,1.9465648854961832,-162.20183486238534,-274.86238532110093,-93.30275229357798,,
1760467431.387473,467,-0.6180659340659341,1.609846153846154,151.0165054945055,72.29007633587786,-144.61068702290078,1.9465648854961832,-103.4862385321101,-227.88990825688077,-163.76146788990826,,
1760467431.408749,468,-0.4671428571428571,1.6026593406593408,163.89527472527473,87.92366412213741,-146.5648854961832,1.9465648854961832,-44.77064220183487,-227.88990825688077,-69.81651376146789,,
1760467431.4405038,469,-0.6036923076923078,1.7176483516483516,162.17043956043958,93.78625954198472,-148.51908396946564,1.9465648854961832,13.944954128440369,-251.2844036697248,-140.27522935779817,,
1760467431.4721844,470,-0.5605714285714286,1.8110769230769237,152.91382417582415,87.92366412213741,-150.4732824427481,1.9465648854961832,72.6605504587156,-227.7981651376147,-93.30275229357798,,
1760467431.482837,471,-0.4671428571428571,1.7751428571428571,167.64679120879123,80.10687022900764,-150.4732824427481,1.9465648854961832,131.37614678899084,-227.7981651376147,-93.30275229357798,,
1760467431.504069,472,-0.5102637362637363,1.6242197802197802,149.19824175824175,97.6946564885496,-158.29007633587787,1.9465648854961832,190.09174311926608,-227.7981651376147,-116.78899082568807,,
1760467431.5146918,473,-0.5893186813186814,1.7176483516483516,167.54617582417583,78.1526717557252,-154.38167938931298,1.9465648854961832,248.80733944954127,-204.3119266055046,-140.27522935779817,,
1760467431.535972,474,-0.4958901098901099,1.8254505494505493,162.08419780219782,80.10687022900764,-140.70229007633588,1.9465648854961832,307.5229357798165,-274.77064220183485,-140.27522935779817,,
1760467431.5466416,475,-0.5533846153846155,1.7967032967032968,165.85727472527475,91.83206106870227,-136.793893129771,1.9465648854961832,366.2385321100917,-274.77064220183485,-116.78899082568807,,
1760467431.5677874,476,-0.459956043956044,1.6673406593406594,162.1273186813187,95.74045801526718,-140.70229007633588,1.9465648854961832,424.95412844036696,-251.2844036697248,-116.78899082568807,,
1760467431.5995405,477,-0.5102637362637363,1.7176483516483516,167.70428571428573,87.92366412213741,-146.5648854961832,1.9465648854961832,483.6697247706422,-274.77064220183485,-116.78899082568807,,
1760467431.6102526,478,-0.539010989010989,1.7535824175824175,158.34705494505494,93.78625954198472,-154.38167938931298,1.9465648854961832,542.3853211009174,-227.7981651376147,-69.81651376146789,,
1760467431.6314652,479,-0.5102637362637363,1.6673406593406594,165.87883516483518,70.33587786259542,-150.4732824427481,1.9465648854961832,601.1009174311927,-204.3119266055046,-69.81651376146789,,
1760467431.642226,480,-0.5318241758241758,1.6529670329670332,158.34705494505494,85.96946564885496,-150.4732824427481,1.9465648854961832,659.8165137614678,-227.7981651376147,-116.78899082568807,,
1760467431.6633832,481,-0.7330549450549451,1.6457802197802198,162.08419780219782,85.96946564885496,-156.33587786259542,1.9465648854961832,718.5321100917431,-204.3119266055046,-140.27522935779817,,
1760467431.6950846,482,-0.6180659340659341,1.7176483516483516,162.0195164835165,95.74045801526718,-148.51908396946564,1.9465648854961832,777.2477064220184,-251.2844036697248,-116.78899082568807,,
1760467431.7057848,483,-0.6252527472527473,1.6457802197802198,171.2401978021978,80.10687022900764,-140.70229007633588,1.9465648854961832,835.9633027522935,-227.7981651376147,-116.78899082568807,,
1760467431.726978,484,-0.539010989010989,1.617032967032967,160.26593406593406,80.10687022900764,-142.65648854961833,1.9465648854961832,894.6788990825688,-251.2844036697248,-69.81651376146789,,
1760467431.7481177,485,-0.4887032967032967,1.7607692307692309,176.8602857142857,82.06106870229007,-150.4732824427481,1.9465648854961832,953.394495412844,-251.2844036697248,-69.81651376146789,,
1760467431.7588327,486,-0.6252527472527473,1.688901098901099,162.09857142857146,76.19847328244275,-150.4732824427481,1.9465648854961832,1012.1100917431193,-227.7981651376147,-116.78899082568807,,
1760467431.7799816,487,-0.5246373626373626,1.80389010989011,158.44767032967033,84.01526717557252,-150.4732824427481,1.9465648854961832,1070.8256880733943,-227.7981651376147,-116.78899082568807,,
1760467431.7908046,488,-0.6683736263736263,1.7751428571428571,154.768021978022,91.83206106870227,-156.33587786259542,1.9465648854961832,1129.5412844036698,-227.7981651376147,-140.27522935779817,,
1760467431.8225937,489,-0.5246373626373626,1.6673406593406594,167.5892967032967,85.96946564885496,-148.51908396946564,1.9465648854961832,1188.2568807339449,-251.2844036697248,-93.30275229357798,,
1760467431.8543372,490,-0.4455824175824175,1.7823296703296705,156.6294065934066,99.64885496183206,-142.65648854961833,1.9465648854961832,1246.97247706422,-274.77064220183485,-116.78899082568807,,
1760467431.8860457,491,-0.6324395604395605,1.5092307692307694,160.23,72.29007633587786,-148.51908396946564,1.9465648854961832,1305.6880733944954,-227.7981651376147,-116.78899082568807,,
1760467431.8966825,492,-0.6036923076923078,1.7176483516483516,162.16325274725278,85.96946564885496,-152.42748091603053,1.9465648854961832,1364.403669724771,-251.2844036697248,-116.78899082568807,,
1760467431.907364,493,-0.4815164835164835,1.7104615384615385,158.3686153846154,84.01526717557252,-150.4732824427481,1.9465648854961832,1423.119266055046,-251.2844036697248,-116.78899082568807,,
1760467431.918043,494,1.300813186813187,0.0431208791208791,162.0626373626374,105.5114503816794,-154.38167938931298,1.9465648854961832,1481.8348623853212,-274.77064220183485,-187.24770642201835,,
1760467431.949923,495,-0.5677582417582419,1.767956043956044,158.36142857142858,78.1526717557252,-154.38167938931298,1.9465648854961832,1540.5504587155965,-227.7981651376147,-116.78899082568807,,
1760467431.9606998,496,-0.5318241758241758,1.6242197802197802,160.2371868131868,84.01526717557252,-150.4732824427481,1.9465648854961832,1599.2660550458716,-274.77064220183485,-116.78899082568807,,
1760467431.9819143,497,-0.5246373626373626,1.5810989010989014,162.09857142857146,72.29007633587786,-154.38167938931298,1.9465648854961832,1657.9816513761468,-251.2844036697248,-69.81651376146789,,
1760467432.0032055,498,-0.5893186813186814,1.8182637362637364,152.84914285714285,93.78625954198472,-156.33587786259542,1.9465648854961832,1716.697247706422,-251.2844036697248,-116.78899082568807,,
1760467432.013831,499,-0.4527692307692308,1.566725274725275,163.90246153846155,82.06106870229007,-144.61068702290078,1.9465648854961832,1775.4128440366974,-251.2844036697248,-116.78899082568807,,
1760467432.0351207,500,-0.574945054945055,1.724835164835165,160.19406593406592,87.92366412213741,-152.42748091603053,1.9465648854961832,1834.1284403669724,-274.77064220183485,-69.81651376146789,,
1760467432.0667555,501,-0.5461978021978022,1.6817142857142855,160.2946813186813,76.19847328244275,-158.29007633587787,1.9465648854961832,1892.844036697248,-274.77064220183485,-93.30275229357798,,
1760467432.0775754,502,-0.5893186813186814,1.7104615384615385,162.08419780219782,80.10687022900764,-158.29007633587787,1.9465648854961832,1951.559633027523,-227.7981651376147,-116.78899082568807,,
1760467432.0987456,503,-0.5533846153846155,1.8182637362637364,176.85309890109892,72.29007633587786,-146.5648854961832,1.9465648854961832,2010.2752293577985,-227.7981651376147,-46.3302752293578,,
1760467432.1095278,504,-0.6252527472527473,1.6960879120879122,160.25156043956045,76.19847328244275,-160.24427480916032,1.9465648854961832,2068.990825688073,-204.3119266055046,-69.81651376146789,,
1760467432.1307364,505,-0.539010989010989,1.6817142857142855,160.3378021978022,85.96946564885496,-148.51908396946564,1.9465648854961832,2127.706422018349,-227.7981651376147,-140.27522935779817,,
1760467432.1625128,506,-0.5461978021978022,1.6673406593406594,178.6498021978022,91.83206106870227,-146.5648854961832,1.9465648854961832,2186.422018348624,-227.7981651376147,-116.78899082568807,,
1760467432.173249,507,-0.5461978021978022,1.7176483516483516,163.90964835164837,78.1526717557252,-148.51908396946564,1.9465648854961832,2245.1376146789,-274.77064220183485,-93.30275229357798,,
1760467432.1943984,508,-0.6971208791208792,1.609846153846154,167.66835164835166,85.96946564885496,-146.5648854961832,1.9465648854961832,2303.853211009174,-227.7981651376147,-69.81651376146789,,
1760467432.2051442,509,-0.3952747252747253,1.7392087912087917,167.68272527472527,68.38167938931298,-164.15267175572518,1.9465648854961832,2362.568807339449,-227.7981651376147,-93.30275229357798,,
1760467432.2262654,510,-0.539010989010989,1.631406593406593,163.95276923076926,72.29007633587786,-156.33587786259542,1.9465648854961832,2421.2844036697247,-227.7981651376147,-140.27522935779817,,
1760467432.258067,511,-0.6108791208791209,1.6529670329670332,156.5719120879121,87.92366412213741,-160.24427480916032,1.9465648854961832,2480.0,-227.7981651376147,-93.30275229357798,,
1760467432.268731,512,-0.6611868131868132,1.7104615384615385,158.40454945054947,99.64885496183206,-152.42748091603053,1.9465648854961832,2538.7155963302757,-251.2844036697248,-116.78899082568807,,
1760467432.2900066,513,-0.5677582417582419,1.7176483516483516,163.95276923076926,78.1526717557252,-142.65648854961833,1.9465648854961832,2597.4311926605506,-251.2844036697248,-116.78899082568807,,
1760467432.300791,514,-0.5461978021978022,1.5810989010989014,162.0626373626374,74.2442748091603,-144.61068702290078,1.9465648854961832,2656.146788990826,-227.7981651376147,-116.78899082568807,,
1760467432.3325806,515,-0.5893186813186814,1.8110769230769237,169.4866153846154,60.56488549618321,-150.4732824427481,1.9465648854961832,2714.862385321101,-227.7981651376147,-116.78899082568807,,
1760467432.364188,516,-0.4383956043956044,1.7607692307692309,160.2803076923077,82.06106870229007,-154.38167938931298,1.9465648854961832,2773.5779816513764,-204.3119266055046,-116.78899082568807,,
1760467432.3748548,517,-0.6180659340659341,1.7751428571428571,158.3758021978022,91.83206106870227,-156.33587786259542,1.9465648854961832,2832.293577981652,-298.25688073394497,-116.78899082568807,,
1760467432.3960366,518,-0.5677582417582419,1.7032747252747251,158.49079120879122,93.78625954198472,-156.33587786259542,1.9465648854961832,2891.0091743119265,-274.77064220183485,-93.30275229357798,,
1760467432.4067674,519,-0.5102637362637363,1.6601538461538463,171.3120659340659,87.92366412213741,-148.51908396946564,1.9465648854961832,2949.7247706422017,-251.2844036697248,-93.30275229357798,,
1760467432.4174397,520,-0.5965054945054945,1.7320219780219783,171.21863736263737,85.96946564885496,-148.51908396946564,1.9465648854961832,-3004.0366972477063,-227.7981651376147,-116.78899082568807,,
1760467432.449129,521,-0.539010989010989,1.7751428571428571,169.4291208791209,72.29007633587786,-164.15267175572518,1.9465648854961832,-2945.321100917431,-204.3119266055046,-93.30275229357798,,
1760467432.459918,522,-0.4383956043956044,1.8182637362637364,169.386,82.06106870229007,-154.38167938931298,1.9465648854961832,-2886.605504587156,-204.3119266055046,-93.30275229357798,,
1760467432.480971,523,-0.6324395604395605,1.6817142857142855,160.20125274725274,87.92366412213741,-146.5648854961832,1.9465648854961832,-2827.8899082568805,-298.25688073394497,-69.81651376146789,,
1760467432.5128546,524,-0.5965054945054945,1.724835164835165,149.1623076923077,97.6946564885496,-150.4732824427481,1.9465648854961832,-2769.174311926605,-227.7981651376147,-116.78899082568807,,
1760467432.5235984,525,-0.539010989010989,1.6673406593406594,164.06775824175827,82.06106870229007,-152.42748091603053,1.9465648854961832,-2710.45871559633,-227.7981651376147,-140.27522935779817,,
1760467432.544987,526,1.2864395604395606,0.0359340659340659,160.20125274725274,78.1526717557252,-158.29007633587787,1.9465648854961832,-2651.7431192660547,-251.2844036697248,-69.81651376146789,,
1760467432.5557325,527,-0.5174505494505495,1.7104615384615385,163.9312087912088,78.1526717557252,-152.42748091603053,1.9465648854961832,-2593.02752293578,-227.7981651376147,-116.78899082568807,,
1760467432.5872705,528,-0.6180659340659341,1.688901098901099,163.90246153846155,80.10687022900764,-156.33587786259542,1.9465648854961832,-2534.3119266055046,-251.2844036697248,-93.30275229357798,,
1760467432.608334,529,-0.5605714285714286,1.5523516483516484,156.53597802197802,93.78625954198472,-146.5648854961832,1.9465648854961832,-2475.5963302752293,-227.7981651376147,-116.78899082568807,,
1760467432.6190703,530,-0.4168351648351648,1.7320219780219783,156.57909890109892,99.64885496183206,-150.4732824427481,1.9465648854961832,-2416.880733944954,-227.7981651376147,-140.27522935779817,,
1760467432.640303,531,-0.539010989010989,1.6673406593406594,156.65815384615385,85.96946564885496,-158.29007633587787,1.9465648854961832,-2358.1651376146788,-204.3119266055046,-93.30275229357798,,
1760467432.6510098,532,1.200197802197802,0.0071868131868131,160.2371868131868,80.10687022900764,-156.33587786259542,1.9465648854961832,-2299.4495412844035,-227.7981651376147,-93.30275229357798,,
1760467432.6827855,533,-0.5533846153846155,1.7823296703296705,163.90246153846155,76.19847328244275,-154.38167938931298,1.9465648854961832,-2240.733944954128,-274.77064220183485,-69.81651376146789,,
1760467432.7145207,534,-0.5030769230769231,1.7463956043956046,162.14887912087914,85.96946564885496,-144.61068702290078,1.9465648854961832,-2182.018348623853,-251.2844036697248,-116.78899082568807,,
1760467432.7252204,535,-0.5677582417582419,1.7607692307692309,167.61085714285716,78.1526717557252,-140.70229007633588,1.9465648854961832,-2123.3027522935777,-227.7981651376147,-93.30275229357798,,
1760467432.7463372,536,-0.574945054945055,1.724835164835165,167.56054945054944,97.6946564885496,-148.51908396946564,1.9465648854961832,-2064.5871559633024,-227.7981651376147,-93.30275229357798,,
1760467432.7569966,537,-0.4168351648351648,1.724835164835165,165.74947252747253,84.01526717557252,-154.38167938931298,1.9465648854961832,-2005.8715596330276,-227.7981651376147,-116.78899082568807,,
1760467432.7781951,538,-0.539010989010989,1.7176483516483516,163.9743296703297,82.06106870229007,-152.42748091603053,1.9465648854961832,-1947.1559633027523,-227.7981651376147,-93.30275229357798,,
1760467432.8098838,539,-0.5461978021978022,1.6457802197802198,167.60367032967034,85.96946564885496,-150.4732824427481,1.9465648854961832,-1888.4403669724768,-227.7981651376147,-69.81651376146789,,
1760467432.8412738,540,-0.5246373626373626,1.6242197802197802,163.93839560439562,80.10687022900764,-156.33587786259542,1.9465648854961832,-1829.724770642202,-227.7981651376147,-140.27522935779817,,
1760467432.8518674,541,-0.5605714285714286,1.6601538461538463,165.7279120879121,93.78625954198472,-154.38167938931298,1.9465648854961832,-1771.0091743119267,-274.77064220183485,-116.78899082568807,,
1760467432.873268,542,-0.5533846153846155,1.6673406593406594,162.15606593406596,97.6946564885496,-150.4732824427481,1.9465648854961832,-1712.2935779816517,-227.7981651376147,-163.76146788990826,,
1760467432.8839138,543,-0.5318241758241758,1.617032967032967,163.95276923076926,74.2442748091603,-148.51908396946564,1.9465648854961832,-1653.5779816513764,-227.7981651376147,-93.30275229357798,,
1760467432.905295,544,1.264879120879121,0.0215604395604395,162.11294505494507,74.2442748091603,-142.65648854961833,1.9465648854961832,-1594.8623853211009,-251.2844036697248,-69.81651376146789,,
1760467432.9158783,545,-0.5030769230769231,1.724835164835165,163.95276923076926,91.83206106870227,-150.4732824427481,1.9465648854961832,-1536.1467889908256,-227.7981651376147,-140.27522935779817,,
1760467432.937097,546,1.264879120879121,0.0071868131868131,156.57909890109892,80.10687022900764,-140.70229007633588,1.9465648854961832,-1477.4311926605503,-274.77064220183485,-163.76146788990826,,
1760467432.9584565,547,-0.5246373626373626,1.7535824175824175,169.500989010989,66.42748091603053,-158.29007633587787,1.9465648854961832,-1418.7155963302753,-227.7981651376147,-116.78899082568807,,
1760467432.9690888,548,-0.5461978021978022,1.6529670329670332,154.68178021978022,80.10687022900764,-146.5648854961832,1.9465648854961832,-1360.0,-251.2844036697248,-116.78899082568807,,
1760467432.9903426,549,-0.5893186813186814,1.7392087912087917,167.55336263736265,84.01526717557252,-154.38167938931298,1.9465648854961832,-1301.2844036697247,-204.3119266055046,-116.78899082568807,,
1760467433.0220037,550,-0.4455824175824175,1.6745274725274726,160.2946813186813,97.6946564885496,-156.33587786259542,1.9465648854961832,-1242.5688073394494,-274.77064220183485,-93.30275229357798,,
1760467433.0327392,551,-0.6036923076923078,1.609846153846154,162.16325274725278,85.96946564885496,-156.33587786259542,1.9465648854961832,-1183.8532110091742,-227.7981651376147,-140.27522935779817,,
1760467433.0539484,552,-0.574945054945055,1.7320219780219783,165.7279120879121,85.96946564885496,-158.29007633587787,1.9465648854961832,-1125.1376146788991,-274.77064220183485,-140.27522935779817,,
1760467433.0856078,553,-0.5461978021978022,1.724835164835165,163.9887032967033,68.38167938931298,-154.38167938931298,1.9465648854961832,-1066.422018348624,-204.3119266055046,-116.78899082568807,,
1760467433.0962744,554,-0.4671428571428571,1.609846153846154,167.51024175824176,85.96946564885496,-148.51908396946564,1.9465648854961832,-1007.7064220183486,-274.77064220183485,-93.30275229357798,,
1760467433.117474,555,-0.5821318681318681,1.7320219780219783,160.42404395604396,82.06106870229007,-138.74809160305344,1.9465648854961832,-948.9908256880732,-274.77064220183485,-93.30275229357798,,
1760467433.1282344,556,-0.5677582417582419,1.6601538461538463,138.02993406593407,99.64885496183206,-140.70229007633588,1.9465648854961832,-890.2752293577981,-251.2844036697248,-93.30275229357798,,
1760467433.149386,557,-0.6108791208791209,1.7463956043956046,173.16626373626374,78.1526717557252,-144.61068702290078,1.9465648854961832,-831.5596330275229,-251.2844036697248,-140.27522935779817,,
1760467433.1809323,558,-0.5677582417582419,1.7895164835164834,162.0123296703297,84.01526717557252,-146.5648854961832,1.9465648854961832,-772.8440366972477,-227.7981651376147,-93.30275229357798,,
1760467433.191628,559,-0.5318241758241758,1.7320219780219783,171.32643956043955,74.2442748091603,-144.61068702290078,1.9465648854961832,-714.1284403669725,-227.7981651376147,-116.78899082568807,,
1760467433.2130291,560,-0.6683736263736263,1.7751428571428571,165.87883516483518,80.10687022900764,-150.4732824427481,1.9465648854961832,-655.4128440366973,-227.7981651376147,-140.27522935779817,,
1760467433.2238624,561,-0.5965054945054945,1.5882857142857143,169.43630769230768,97.6946564885496,-146.5648854961832,1.9465648854961832,-596.697247706422,-227.7981651376147,-93.30275229357798,,
1760467433.2451124,562,-0.3952747252747253,1.5451648351648353,154.75364835164837,89.87786259541984,-154.38167938931298,1.9465648854961832,-537.9816513761468,-204.3119266055046,-116.78899082568807,,
1760467433.276783,563,-0.5821318681318681,1.566725274725275,171.26175824175823,93.78625954198472,-152.42748091603053,1.9465648854961832,-479.2660550458716,-251.2844036697248,-116.78899082568807,,
1760467433.2873745,564,-0.6252527472527473,1.617032967032967,167.6324175824176,85.96946564885496,-148.51908396946564,1.9465648854961832,-420.55045871559633,-251.2844036697248,-93.30275229357798,,
1760467433.3085976,565,-0.6180659340659341,1.6673406593406594,169.42193406593407,72.29007633587786,-142.65648854961833,1.9465648854961832,-361.8348623853211,-298.25688073394497,-116.78899082568807,,
1760467433.3194692,566,-0.5174505494505495,1.7392087912087917,156.63659340659342,84.01526717557252,-142.65648854961833,1.9465648854961832,-303.11926605504584,-227.7981651376147,-116.78899082568807,,
1760467433.3406205,567,-0.5461978021978022,1.7751428571428571,158.5267252747253,80.10687022900764,-152.42748091603053,1.9465648854961832,-244.40366972477065,-204.3119266055046,-93.30275229357798,,
1760467433.372377,568,-0.5533846153846155,1.617032967032967,165.7279120879121,97.6946564885496,-150.4732824427481,1.9465648854961832,-185.68807339449543,-227.7981651376147,-140.27522935779817,,
1760467433.3830454,569,-0.4455824175824175,1.7176483516483516,154.73208791208793,87.92366412213741,-140.70229007633588,1.9465648854961832,-126.9724770642202,-227.7981651376147,-116.78899082568807,,
1760467433.4147007,570,-0.5533846153846155,1.7104615384615385,160.35936263736264,87.92366412213741,-152.42748091603053,1.9465648854961832,-68.25688073394495,-251.2844036697248,-93.30275229357798,,
1760467433.4254282,571,-0.6108791208791209,1.6601538461538463,180.47525274725277,85.96946564885496,-154.38167938931298,1.9465648854961832,-9.541284403669724,-227.7981651376147,-116.78899082568807,,
1760467433.4465983,572,-0.5605714285714286,1.7320219780219783,151.00213186813187,76.19847328244275,-156.33587786259542,1.9465648854961832,49.17431192660551,-227.70642201834863,-116.78899082568807,,
1760467433.4783957,573,-0.5965054945054945,1.6529670329670332,167.6324175824176,84.01526717557252,-146.5648854961832,1.9465648854961832,107.88990825688074,-274.6788990825688,-116.78899082568807,,
1760467433.4890504,574,-0.5677582417582419,1.688901098901099,154.8183296703297,93.78625954198472,-148.51908396946564,1.9465648854961832,166.60550458715596,-274.6788990825688,-93.30275229357798,,
1760467433.510357,575,-0.5893186813186814,1.7176483516483516,167.67553846153848,91.83206106870227,-152.42748091603053,1.9465648854961832,225.3211009174312,-251.19266055045875,-116.78899082568807,,
1760467433.5210404,576,-0.5893186813186814,1.7463956043956046,156.53597802197802,93.78625954198472,-158.29007633587787,1.9465648854961832,284.0366972477064,-251.19266055045875,-69.81651376146789,,
1760467433.5422568,577,-0.5246373626373626,1.767956043956044,173.15189010989013,70.33587786259542,-152.42748091603053,1.9465648854961832,342.7522935779817,-180.73394495412845,-163.76146788990826,,
1760467433.5634303,578,-0.5893186813186814,1.8110769230769237,158.44767032967033,85.96946564885496,-156.33587786259542,1.9465648854961832,401.4678899082568,-204.2201834862385,-116.78899082568807,,
1760467433.574206,579,-0.7689890109890111,1.767956043956044,162.03389010989014,85.96946564885496,-144.61068702290078,1.9465648854961832,460.18348623853205,-227.70642201834863,-140.27522935779817,,
1760467433.595441,580,-0.4815164835164835,1.7176483516483516,162.13450549450553,93.78625954198472,-142.65648854961833,1.9465648854961832,518.8990825688073,-274.6788990825688,-140.27522935779817,,
1760467433.6270049,581,-0.5533846153846155,1.7895164835164834,165.81415384615386,82.06106870229007,-146.5648854961832,1.9465648854961832,577.6146788990825,-274.6788990825688,-140.27522935779817,,
1760467433.6378374,582,-0.5821318681318681,1.7032747252747251,165.69197802197803,82.06106870229007,-148.51908396946564,1.9465648854961832,636.3302752293578,-251.19266055045875,-69.81651376146789,,
1760467433.6695735,583,-0.5677582417582419,1.7392087912087917,158.497978021978,74.2442748091603,-146.5648854961832,1.9465648854961832,695.045871559633,-204.2201834862385,-116.78899082568807,,
1760467433.680266,584,1.3439340659340662,0.0287472527472527,138.17367032967033,87.92366412213741,-150.4732824427481,1.9465648854961832,753.7614678899082,-227.70642201834863,-93.30275229357798,,
1760467433.7015674,585,-0.6396263736263736,1.7104615384615385,160.2803076923077,87.92366412213741,-154.38167938931298,1.9465648854961832,812.4770642201835,-227.70642201834863,-116.78899082568807,,
1760467433.7124372,586,-0.5461978021978022,1.7751428571428571,162.14169230769232,99.64885496183206,-154.38167938931298,1.9465648854961832,871.1926605504586,-227.70642201834863,-69.81651376146789,,
1760467433.7338386,587,-0.4958901098901099,1.6745274725274726,167.61804395604395,74.2442748091603,-148.51908396946564,1.9465648854961832,929.908256880734,-251.19266055045875,-93.30275229357798,,
1760467433.7655897,588,-0.5318241758241758,1.8326373626373629,165.75665934065935,78.1526717557252,-148.51908396946564,1.9465648854961832,988.6238532110092,-251.19266055045875,-116.78899082568807,,
1760467433.7762468,589,-0.539010989010989,1.6745274725274726,171.36237362637362,78.1526717557252,-154.38167938931298,1.9465648854961832,1047.3394495412845,-251.19266055045875,-116.78899082568807,,
1760467433.7869215,590,-0.574945054945055,1.8254505494505493,165.74947252747253,85.96946564885496,-142.65648854961833,1.9465648854961832,1106.0550458715595,-251.19266055045875,-116.78899082568807,,
1760467433.818499,591,-0.5893186813186814,1.6817142857142855,158.46204395604397,91.83206106870227,-148.51908396946564,1.9465648854961832,1164.7706422018348,-251.19266055045875,-116.78899082568807,,
1760467433.8292327,592,-0.539010989010989,1.6601538461538463,158.27518681318682,91.83206106870227,-142.65648854961833,1.9465648854961832,1223.48623853211,-251.19266055045875,-93.30275229357798,,
1760467433.8505015,593,-0.5893186813186814,1.7320219780219783,173.0728351648352,89.87786259541984,-152.42748091603053,1.9465648854961832,1282.201834862385,-251.19266055045875,-93.30275229357798,,
1760467433.8822584,594,-0.6468131868131869,1.7320219780219783,169.4434945054945,85.96946564885496,-146.5648854961832,1.9465648854961832,1340.9174311926606,-274.6788990825688,-140.27522935779817,,
1760467433.8929574,595,-0.4671428571428571,1.7823296703296705,162.08419780219782,78.1526717557252,-144.61068702290078,1.9465648854961832,1399.633027522936,-251.19266055045875,-140.27522935779817,,
1760467433.9140658,596,-0.5318241758241758,1.6242197802197802,152.9281978021978,84.01526717557252,-148.51908396946564,1.9465648854961832,1458.348623853211,-251.19266055045875,-93.30275229357798,,
1760467433.945892,597,-0.5533846153846155,1.7320219780219783,162.16325274725278,97.6946564885496,-150.4732824427481,1.9465648854961832,1517.0642201834862,-251.19266055045875,-116.78899082568807,,
1760467433.956713,598,-0.574945054945055,1.7967032967032968,163.93839560439562,99.64885496183206,-144.61068702290078,1.9465648854961832,1575.7798165137615,-251.19266055045875,-46.3302752293578,,
1760467433.9779963,599,-0.5677582417582419,1.724835164835165,167.66835164835166,87.92366412213741,-148.51908396946564,1.9465648854961832,1634.4954128440368,-204.2201834862385,-116.78899082568807,,
1760467433.988755,600,-0.5102637362637363,1.7823296703296705,167.56054945054944,85.96946564885496,-144.61068702290078,1.9465648854961832,1693.211009174312,-251.19266055045875,-116.78899082568807,,
1760467434.0100052,601,-0.5677582417582419,1.6385934065934065,171.2545714285714,80.10687022900764,-148.51908396946564,1.9465648854961832,1751.926605504587,-227.70642201834863,-116.78899082568807,,
1760467434.0415864,602,-0.4815164835164835,1.6960879120879122,156.59347252747253,85.96946564885496,-154.38167938931298,1.9465648854961832,1810.6422018348624,-274.6788990825688,-116.78899082568807,,
1760467434.0522895,603,-0.459956043956044,1.6601538461538463,165.67760439560442,82.06106870229007,-146.5648854961832,1.9465648854961832,1869.3577981651376,-251.19266055045875,-140.27522935779817,,
1760467434.073444,604,-0.4815164835164835,1.767956043956044,156.54316483516484,105.5114503816794,-148.51908396946564,1.9465648854961832,1928.073394495413,-251.19266055045875,-93.30275229357798,,
1760467434.0840707,605,-0.5174505494505495,1.631406593406593,156.62221978021978,91.83206106870227,-152.42748091603053,1.9465648854961832,1986.788990825688,-251.19266055045875,-116.78899082568807,,
1760467434.105334,606,-0.6180659340659341,1.7463956043956046,160.24437362637363,85.96946564885496,-152.42748091603053,1.9465648854961832,2045.5045871559632,-251.19266055045875,-116.78899082568807,,
1760467434.1369472,607,-0.6683736263736263,1.609846153846154,154.8183296703297,78.1526717557252,-144.61068702290078,1.9465648854961832,2104.2201834862385,-251.19266055045875,-116.78899082568807,,
1760467434.1476398,608,-0.5461978021978022,1.7320219780219783,162.02670329670332,87.92366412213741,-150.4732824427481,1.9465648854961832,2162.935779816514,-274.6788990825688,-93.30275229357798,,
1760467434.168857,609,-0.5821318681318681,1.7535824175824175,173.080021978022,91.83206106870227,-162.19847328244273,1.9465648854961832,2221.651376146789,-274.6788990825688,-93.30275229357798,,
1760467434.200717,610,-0.4815164835164835,1.609846153846154,161.9692087912088,87.92366412213741,-160.24427480916032,1.9465648854961832,2280.3669724770643,-251.19266055045875,-140.27522935779817,,
