timestamp,packet_id,accel_x,accel_y,accel_z,gyro_x,gyro_y,gyro_z,mag_x,mag_y,mag_z,battery,temperature
1760462332.3264906,0,152.8132087912088,222.60435164835167,-115.90892307692307,1.9465648854961832,160.8854961832061,-11.061068702290076,-234.2201834862385,-1032.7522935779816,0.3669724770642202,,
1760462332.3379817,1,160.24437362637363,228.12382417582415,-115.90892307692307,1.9465648854961832,165.7709923664122,-13.01526717557252,-210.7339449541284,-1079.7247706422015,0.3669724770642202,,
1760462332.348447,2,162.14887912087914,215.24505494505496,-126.94786813186812,1.9465648854961832,170.65648854961833,-13.01526717557252,-257.70642201834863,-1103.2110091743118,0.3669724770642202,,
1760462332.3590202,3,152.806021978022,231.80347252747256,-119.58857142857144,1.9465648854961832,175.54198473282443,-14.969465648854962,-210.7339449541284,-1103.2110091743118,0.3669724770642202,,
1760462332.369604,4,147.3656043956044,222.60435164835167,-126.94786813186812,1.9465648854961832,180.42748091603053,-11.061068702290076,-257.70642201834863,-1056.2385321100917,0.3669724770642202,,
1760462332.380147,5,152.83476923076924,-233.672043956044,-115.90892307692307,1.9465648854961832,185.31297709923663,-11.061068702290076,-257.70642201834863,-1103.2110091743118,0.3669724770642202,,
1760462332.390836,6,165.75665934065935,231.80347252747256,-126.94786813186812,1.9465648854961832,190.19847328244276,-14.969465648854962,-234.2201834862385,-1056.2385321100917,0.3669724770642202,,
1760462332.4015949,7,151.05962637362637,217.08487912087912,-123.26821978021978,1.9465648854961832,195.0839694656489,-11.061068702290076,-281.1926605504587,-1079.7247706422015,0.3669724770642202,,
1760462332.4122996,8,141.8605054945055,217.08487912087912,-119.58857142857144,1.9465648854961832,199.96946564885496,-14.969465648854962,-304.6788990825688,-1079.7247706422015,0.3669724770642202,,
1760462332.4230392,9,147.38716483516484,220.7645274725275,-125.10804395604396,1.9465648854961832,204.85496183206104,-14.969465648854962,-304.6788990825688,-1056.2385321100917,0.3669724770642202,,
1760462332.4338274,10,152.84195604395606,226.284,-126.94786813186812,1.9465648854961832,209.7404580152672,-14.969465648854962,-234.2201834862385,-1079.7247706422015,0.3669724770642202,,
1760462332.444454,11,154.73927472527475,233.64329670329676,-126.94786813186812,1.9465648854961832,214.6259541984733,-16.923664122137403,-304.6788990825688,-1079.7247706422015,0.3669724770642202,,
1760462332.4553044,12,141.82457142857143,209.7255824175824,-123.26821978021978,1.9465648854961832,219.5114503816794,-13.01526717557252,-210.7339449541284,-1079.7247706422015,0.3669724770642202,,
1760462332.4659412,13,163.9743296703297,222.60435164835167,-123.26821978021978,1.9465648854961832,224.3969465648855,-13.01526717557252,-257.70642201834863,-1103.2110091743118,0.3669724770642202,,
1760462332.4871132,14,151.0165054945055,211.5654065934066,-119.58857142857144,1.9465648854961832,229.2824427480916,-13.01526717557252,-234.2201834862385,-1056.2385321100917,0.3669724770642202,,
1760462332.5189884,15,156.5287912087912,226.284,-115.90892307692307,1.9465648854961832,234.1679389312977,-11.061068702290076,-234.2201834862385,-1056.2385321100917,0.3669724770642202,,
1760462332.5298033,16,152.90663736263735,213.4052307692308,-115.90892307692307,1.9465648854961832,239.05343511450383,-11.061068702290076,-257.70642201834863,-1032.7522935779816,0.3669724770642202,,
1760462332.551043,17,145.53296703296704,-229.9923956043956,-128.7876923076923,1.9465648854961832,243.93893129770996,-13.01526717557252,-210.7339449541284,-1079.7247706422015,0.3669724770642202,,
1760462332.5617943,18,130.7353186813187,228.12382417582415,-130.6275164835165,1.9465648854961832,248.82442748091603,-14.969465648854962,-234.2201834862385,-1079.7247706422015,0.3669724770642202,,
1760462332.5831103,19,140.01349450549452,217.08487912087912,-125.10804395604396,1.9465648854961832,-246.5648854961832,-13.01526717557252,-210.7339449541284,-1032.7522935779816,0.3669724770642202,,
1760462332.6148338,20,154.75364835164837,222.60435164835167,-123.26821978021978,1.9465648854961832,-241.6793893129771,-13.01526717557252,-234.2201834862385,-1056.2385321100917,0.3669724770642202,,
1760462332.6255314,21,158.41173626373626,217.08487912087912,-121.42839560439562,1.9465648854961832,-236.793893129771,-13.01526717557252,-234.2201834862385,-1056.2385321100917,0.3669724770642202,,
1760462332.6469336,22,147.44465934065934,228.12382417582415,-117.74874725274726,1.9465648854961832,-231.9083969465649,-14.969465648854962,-234.2201834862385,-1079.7247706422015,0.3669724770642202,,
1760462332.6576962,23,156.58628571428574,-228.15257142857143,-121.42839560439562,1.9465648854961832,-227.0229007633588,-16.923664122137403,-234.2201834862385,-1056.2385321100917,0.3669724770642202,,
1760462332.6788335,24,158.41892307692308,226.284,-121.42839560439562,1.9465648854961832,-222.13740458015263,-14.969465648854962,-210.7339449541284,-1032.7522935779816,0.3669724770642202,,
1760462332.710682,25,158.41892307692308,220.7645274725275,-123.26821978021978,1.9465648854961832,-217.25190839694656,-14.969465648854962,-210.7339449541284,-1032.7522935779816,0.3669724770642202,,
1760462332.7213204,26,152.90663736263735,215.24505494505496,-117.74874725274726,1.9465648854961832,-212.3664122137405,-14.969465648854962,-234.2201834862385,-1079.7247706422015,0.3669724770642202,,
1760462332.7424834,27,162.077010989011,224.44417582417583,-132.46734065934066,1.9465648854961832,-207.4809160305344,-14.969465648854962,-304.6788990825688,-1056.2385321100917,0.3669724770642202,,
1760462332.7740178,28,158.44767032967033,222.60435164835167,-125.10804395604396,1.9465648854961832,-202.59541984732823,-14.969465648854962,-234.2201834862385,-1079.7247706422015,0.3669724770642202,,
1760462332.784807,29,154.7105274725275,231.80347252747256,-121.42839560439562,1.9465648854961832,-197.70992366412213,-14.969465648854962,-234.2201834862385,-1150.1834862385322,0.3669724770642202,,
1760462332.8059824,30,149.26292307692307,229.96364835164837,-119.58857142857144,1.9465648854961832,-192.82442748091603,-14.969465648854962,-234.2201834862385,-1126.697247706422,0.3669724770642202,,
1760462332.8377452,31,143.7003296703297,233.64329670329676,-125.10804395604396,1.9465648854961832,-187.93893129770996,-11.061068702290076,-257.70642201834863,-1079.7247706422015,0.3669724770642202,,
1760462332.8483958,32,151.04525274725276,211.5654065934066,-114.0690989010989,1.9465648854961832,-183.05343511450383,-13.01526717557252,-187.24770642201835,-1009.2660550458716,0.3669724770642202,,
1760462332.8696768,33,147.40872527472527,220.7645274725275,-117.74874725274726,1.9465648854961832,-178.1679389312977,-16.923664122137403,-234.2201834862385,-1056.2385321100917,0.3669724770642202,,
1760462332.880258,34,154.73927472527475,222.60435164835167,-115.90892307692307,1.9465648854961832,-173.2824427480916,-11.061068702290076,-210.7339449541284,-1126.697247706422,0.3669724770642202,,
1760462332.9014876,35,0.0215604395604395,158.43329670329672,229.96364835164837,-123.1145038167939,1.9465648854961832,-168.3969465648855,-203.39449541284404,-304.6788990825688,-1056.2385321100917,,
1760462332.9331732,36,-0.5030769230769231,1.6960879120879122,154.63147252747254,234.4885496183206,-113.34351145038168,1.9465648854961832,-1965.1376146788991,-132.93577981651376,-257.70642201834863,,
1760462332.9439626,37,-0.5893186813186814,1.7463956043956046,160.26593406593406,236.44274809160305,-132.8854961832061,1.9465648854961832,-1906.422018348624,-156.42201834862385,-210.7339449541284,,
1760462332.965091,38,-0.5677582417582419,1.7104615384615385,149.20542857142857,232.53435114503816,-127.02290076335878,1.9465648854961832,-1847.7064220183488,-203.39449541284404,-257.70642201834863,,
1760462332.975532,39,-0.5821318681318681,1.7895164835164834,145.497032967033,-248.19847328244276,-123.1145038167939,1.9465648854961832,-1788.9908256880733,-132.93577981651376,-234.2201834862385,,
1760462332.9964335,40,-0.5174505494505495,1.6673406593406594,163.99589010989013,246.21374045801528,-123.1145038167939,1.9465648854961832,-1730.2752293577985,-109.44954128440368,-210.7339449541284,,
1760462333.0281649,41,-0.7186813186813188,1.724835164835165,152.9641318681319,244.25954198473283,-132.8854961832061,1.9465648854961832,-1671.559633027523,-156.42201834862385,-281.1926605504587,,
1760462333.0389566,42,-0.6036923076923078,1.6673406593406594,160.12938461538462,240.35114503816797,-127.02290076335878,1.9465648854961832,-1612.8440366972477,-179.90825688073394,-257.70642201834863,,
1760462333.0496273,43,-0.5893186813186814,1.7823296703296705,145.6263956043956,230.5801526717557,-134.83969465648855,1.9465648854961832,-1554.1284403669724,-179.90825688073394,-304.6788990825688,,
1760462333.0814047,44,-0.5965054945054945,1.7607692307692309,169.47224175824175,236.44274809160305,-119.206106870229,1.9465648854961832,-1495.4128440366972,-179.90825688073394,-234.2201834862385,,
1760462333.0922155,45,-0.5461978021978022,1.7176483516483516,154.6674065934066,242.3053435114504,-128.9770992366412,1.9465648854961832,-1436.697247706422,-156.42201834862385,-234.2201834862385,,
1760462333.1240172,46,-0.6324395604395605,1.7751428571428571,171.3120659340659,248.1679389312977,-128.9770992366412,1.9465648854961832,-1377.9816513761468,-156.42201834862385,-210.7339449541284,,
1760462333.134845,47,-0.6468131868131869,1.7751428571428571,149.2701098901099,-230.6106870229008,-121.16030534351144,1.9465648854961832,-1319.2660550458716,-156.42201834862385,-234.2201834862385,,
1760462333.1560414,48,-0.539010989010989,1.6457802197802198,140.02068131868134,228.6259541984733,-132.8854961832061,1.9465648854961832,-1260.5504587155965,-179.90825688073394,-234.2201834862385,,
1760462333.1879373,49,-0.5605714285714286,1.7104615384615385,147.31529670329672,242.3053435114504,-117.25190839694656,1.9465648854961832,-1201.834862385321,-179.90825688073394,-257.70642201834863,,
1760462333.1986094,50,-0.6755604395604397,1.6026593406593408,151.10993406593408,230.5801526717557,-134.83969465648855,1.9465648854961832,-1143.1192660550455,-203.39449541284404,-257.70642201834863,,
1760462333.2199583,51,-0.6180659340659341,1.688901098901099,162.14169230769232,246.21374045801528,-119.206106870229,1.9465648854961832,-1084.403669724771,-132.93577981651376,-210.7339449541284,,
1760462333.230614,52,-0.5461978021978022,1.6960879120879122,154.68896703296704,244.25954198473283,-127.02290076335878,1.9465648854961832,-1025.6880733944954,-156.42201834862385,-257.70642201834863,,
1760462333.25199,53,-0.5893186813186814,1.6385934065934065,158.3254945054945,-248.19847328244276,-121.16030534351144,1.9465648854961832,-966.97247706422,-132.93577981651376,-281.1926605504587,,
1760462333.273222,54,1.1427032967032968,0.0431208791208791,158.41892307692308,226.67175572519085,-128.9770992366412,1.9465648854961832,-908.2568807339449,-156.42201834862385,-304.6788990825688,,
1760462333.283903,55,-0.5533846153846155,1.7535824175824175,158.40454945054947,230.5801526717557,-121.16030534351144,1.9465648854961832,-849.5412844036697,-179.90825688073394,-281.1926605504587,,
1760462333.305123,56,-0.539010989010989,1.7823296703296705,156.60784615384617,232.53435114503816,-130.93129770992363,1.9465648854961832,-790.8256880733945,-179.90825688073394,-210.7339449541284,,
1760462333.336801,57,-0.5174505494505495,1.7032747252747251,154.768021978022,238.3969465648855,-127.02290076335878,1.9465648854961832,-732.1100917431193,-156.42201834862385,-210.7339449541284,,
1760462333.3474572,58,-0.6683736263736263,1.6457802197802198,169.4291208791209,-248.19847328244276,-123.1145038167939,1.9465648854961832,-673.3944954128441,-156.42201834862385,-210.7339449541284,,
1760462333.368696,59,-0.5605714285714286,1.6457802197802198,152.85632967032967,244.25954198473283,-134.83969465648855,1.9465648854961832,-614.6788990825688,-156.42201834862385,-281.1926605504587,,
1760462333.4109132,60,-0.6324395604395605,1.5882857142857143,143.77938461538463,-248.19847328244276,-119.206106870229,1.9465648854961832,-555.9633027522935,-179.90825688073394,-257.70642201834863,,
1760462333.4216254,61,-0.6683736263736263,1.6242197802197802,163.98151648351651,232.53435114503816,-127.02290076335878,1.9465648854961832,-497.2477064220183,-156.42201834862385,-210.7339449541284,,
1760462333.4428773,62,-0.6324395604395605,1.6457802197802198,149.1623076923077,234.4885496183206,-123.1145038167939,1.9465648854961832,-438.5321100917431,-156.42201834862385,-234.2201834862385,,
1760462333.45357,63,-0.6899340659340659,1.80389010989011,158.3686153846154,240.35114503816797,-115.29770992366412,1.9465648854961832,-379.8165137614679,-156.42201834862385,-234.2201834862385,,
1760462333.4748826,64,-0.6252527472527473,1.7176483516483516,154.7249010989011,248.1679389312977,-132.8854961832061,1.9465648854961832,-321.10091743119267,-156.42201834862385,-257.70642201834863,,
1760462333.4855883,65,-0.5318241758241758,1.6817142857142855,158.3758021978022,246.21374045801528,-132.8854961832061,1.9465648854961832,-262.3853211009174,-203.39449541284404,-257.70642201834863,,
1760462333.506894,66,-0.6180659340659341,1.8182637362637364,138.07305494505496,232.53435114503816,-119.206106870229,1.9465648854961832,-203.66972477064215,-156.42201834862385,-163.76146788990826,,
1760462333.538578,67,-0.539010989010989,1.6385934065934065,154.70334065934068,226.67175572519085,-132.8854961832061,1.9465648854961832,-144.95412844036696,-179.90825688073394,-234.2201834862385,,
1760462333.549208,68,-0.5965054945054945,1.80389010989011,152.8635164835165,226.67175572519085,-125.06870229007632,1.9465648854961832,-86.23853211009175,-156.42201834862385,-257.70642201834863,,
1760462333.5599225,69,-0.5030769230769231,1.688901098901099,160.30186813186813,236.44274809160305,-130.93129770992363,1.9465648854961832,-27.522935779816518,-156.42201834862385,-257.70642201834863,,
1760462333.5916853,70,-0.6611868131868132,1.724835164835165,149.1191868131868,246.21374045801528,-125.06870229007632,1.9465648854961832,31.19266055045872,-156.3302752293578,-257.70642201834863,,
1760462333.6024528,71,-0.6468131868131869,1.767956043956044,152.8203956043956,228.6259541984733,-132.8854961832061,1.9465648854961832,89.90825688073394,-179.8165137614679,-234.2201834862385,,
1760462333.6237755,72,-0.5605714285714286,1.688901098901099,145.5114065934066,236.44274809160305,-134.83969465648855,1.9465648854961832,148.62385321100916,-156.3302752293578,-210.7339449541284,,
1760462333.6344385,73,-0.5677582417582419,1.80389010989011,154.73927472527475,230.5801526717557,-128.9770992366412,1.9465648854961832,207.3394495412844,-179.8165137614679,-281.1926605504587,,
1760462333.6556284,74,-0.7689890109890111,1.6242197802197802,154.7249010989011,242.3053435114504,-125.06870229007632,1.9465648854961832,266.0550458715596,-156.3302752293578,-234.2201834862385,,
1760462333.6873145,75,-0.4815164835164835,1.631406593406593,140.07817582417584,234.4885496183206,-125.06870229007632,1.9465648854961832,324.77064220183485,-179.8165137614679,-257.70642201834863,,
1760462333.6979373,76,-0.6252527472527473,1.6745274725274726,156.55035164835166,248.1679389312977,-132.8854961832061,1.9465648854961832,383.4862385321101,-156.3302752293578,-257.70642201834863,,
1760462333.7191796,77,-0.5533846153846155,1.688901098901099,154.8255164835165,-248.19847328244276,-119.206106870229,1.9465648854961832,442.2018348623853,-132.8440366972477,-234.2201834862385,,
1760462333.7509842,78,-0.6755604395604397,1.6385934065934065,149.1623076923077,-248.19847328244276,-119.206106870229,1.9465648854961832,500.9174311926605,-156.3302752293578,-234.2201834862385,,
1760462333.7616806,79,-0.5533846153846155,1.8326373626373629,162.03389010989014,236.44274809160305,-127.02290076335878,1.9465648854961832,559.6330275229358,-156.3302752293578,-281.1926605504587,,
1760462333.7830212,80,-0.5821318681318681,1.7392087912087917,163.9168351648352,234.4885496183206,-127.02290076335878,1.9465648854961832,618.3486238532109,-203.302752293578,-234.2201834862385,,
1760462333.793733,81,-0.4527692307692308,1.7320219780219783,151.08837362637362,238.3969465648855,-127.02290076335878,1.9465648854961832,677.0642201834862,-109.35779816513762,-234.2201834862385,,
1760462333.814937,82,-0.5965054945054945,1.6960879120879122,160.2874945054945,236.44274809160305,-132.8854961832061,1.9465648854961832,735.7798165137615,-156.3302752293578,-281.1926605504587,,
1760462333.846859,83,-0.6252527472527473,1.609846153846154,156.56472527472528,-248.19847328244276,-125.06870229007632,1.9465648854961832,794.4954128440367,-132.8440366972477,-234.2201834862385,,
1760462333.857637,84,-0.6036923076923078,1.7895164835164834,151.05962637362637,234.4885496183206,-119.206106870229,1.9465648854961832,853.2110091743119,-179.8165137614679,-281.1926605504587,,
1760462333.878922,85,-0.6396263736263736,1.7463956043956046,156.5216043956044,220.8091603053435,-130.93129770992363,1.9465648854961832,911.9266055045872,-132.8440366972477,-210.7339449541284,,
1760462333.91068,86,-0.7186813186813188,1.631406593406593,143.63564835164834,232.53435114503816,-140.70229007633588,1.9465648854961832,970.6422018348624,-132.8440366972477,-257.70642201834863,,
1760462333.9213977,87,-0.5965054945054945,1.724835164835165,152.94975824175825,234.4885496183206,-128.9770992366412,1.9465648854961832,1029.3577981651376,-179.8165137614679,-234.2201834862385,,
1760462333.942634,88,-0.574945054945055,1.609846153846154,145.41797802197803,-248.19847328244276,-132.8854961832061,1.9465648854961832,1088.073394495413,-179.8165137614679,-281.1926605504587,,
1760462333.9533138,89,-0.5461978021978022,1.609846153846154,154.78239560439562,240.35114503816797,-130.93129770992363,1.9465648854961832,1146.7889908256882,-179.8165137614679,-257.70642201834863,,
1760462333.9640126,90,-0.6396263736263736,1.5810989010989014,151.15305494505495,236.44274809160305,-113.34351145038168,1.9465648854961832,1205.5045871559632,-156.3302752293578,-234.2201834862385,,
1760462333.9958794,91,-0.539010989010989,1.6457802197802198,154.70334065934068,234.4885496183206,-123.1145038167939,1.9465648854961832,1264.2201834862385,-132.8440366972477,-234.2201834862385,,
1760462334.0276392,92,-0.7114945054945055,1.7895164835164834,158.35424175824176,232.53435114503816,-125.06870229007632,1.9465648854961832,1322.9357798165138,-179.8165137614679,-281.1926605504587,,
1760462334.0384574,93,-0.4455824175824175,1.7392087912087917,160.2803076923077,242.3053435114504,-123.1145038167939,1.9465648854961832,1381.651376146789,-179.8165137614679,-257.70642201834863,,
1760462334.059866,94,-0.5533846153846155,1.7463956043956046,156.55753846153848,-236.4732824427481,-123.1145038167939,1.9465648854961832,1440.3669724770643,-156.3302752293578,-257.70642201834863,,
1760462334.0707717,95,-0.574945054945055,1.7320219780219783,163.8593406593407,246.21374045801528,-130.93129770992363,1.9465648854961832,1499.0825688073394,-156.3302752293578,-187.24770642201835,,
1760462334.1024237,96,-0.6036923076923078,1.7751428571428571,158.382989010989,242.3053435114504,-127.02290076335878,1.9465648854961832,1557.798165137615,-179.8165137614679,-257.70642201834863,,
1760462334.11306,97,-0.5821318681318681,1.6960879120879122,147.46621978021977,236.44274809160305,-136.793893129771,1.9465648854961832,1616.5137614678897,-179.8165137614679,-257.70642201834863,,
1760462334.134432,98,-0.5893186813186814,1.6960879120879122,162.04107692307696,236.44274809160305,-125.06870229007632,1.9465648854961832,1675.229357798165,-156.3302752293578,-257.70642201834863,,
1760462334.1556284,99,-0.6468131868131869,1.7392087912087917,151.074,244.25954198473283,-132.8854961832061,1.9465648854961832,1733.9449541284405,-156.3302752293578,-257.70642201834863,,
1760462334.166305,100,-0.5461978021978022,1.6960879120879122,165.6847912087912,238.3969465648855,-125.06870229007632,1.9465648854961832,1792.6605504587155,-132.8440366972477,-257.70642201834863,,
1760462334.187748,101,-0.6324395604395605,1.5810989010989014,154.7608351648352,244.25954198473283,-132.8854961832061,1.9465648854961832,1851.3761467889908,-203.302752293578,-234.2201834862385,,
1760462334.1984856,102,-0.6324395604395605,1.6673406593406594,154.69615384615386,240.35114503816797,-125.06870229007632,1.9465648854961832,1910.0917431192656,-203.302752293578,-328.1651376146789,,
1760462334.2303178,103,-0.6108791208791209,1.7104615384615385,158.41173626373626,232.53435114503816,-125.06870229007632,1.9465648854961832,1968.807339449541,-132.8440366972477,-234.2201834862385,,
1760462334.2515526,104,-0.6396263736263736,1.6385934065934065,151.074,228.6259541984733,-134.83969465648855,1.9465648854961832,2027.5229357798164,-156.3302752293578,-210.7339449541284,,
1760462334.2622435,105,-0.5605714285714286,1.617032967032967,160.26593406593406,244.25954198473283,-119.206106870229,1.9465648854961832,2086.2385321100915,-179.8165137614679,-257.70642201834863,,
1760462334.2940562,106,-0.6396263736263736,1.6745274725274726,156.62221978021978,240.35114503816797,-128.9770992366412,1.9465648854961832,2144.9541284403667,-156.3302752293578,-257.70642201834863,,
1760462334.3049214,107,-0.6180659340659341,1.80389010989011,162.1201318681319,240.35114503816797,-128.9770992366412,1.9465648854961832,2203.669724770642,-179.8165137614679,-304.6788990825688,,
1760462334.3260832,108,-0.6611868131868132,1.7392087912087917,149.1694945054945,236.44274809160305,-127.02290076335878,1.9465648854961832,2262.3853211009173,-203.302752293578,-304.6788990825688,,
1760462334.3579426,109,-0.539010989010989,1.6673406593406594,163.9312087912088,230.5801526717557,-127.02290076335878,1.9465648854961832,2321.100917431193,-156.3302752293578,-234.2201834862385,,
1760462334.3686397,110,-0.5102637362637363,1.7320219780219783,156.64378021978024,244.25954198473283,-128.9770992366412,1.9465648854961832,2379.816513761468,-132.8440366972477,-234.2201834862385,,
1760462334.3900416,111,-0.5461978021978022,1.7535824175824175,149.14793406593407,246.21374045801528,-119.206106870229,1.9465648854961832,2438.532110091743,-179.8165137614679,-257.70642201834863,,
1760462334.4006982,112,-0.5605714285714286,1.7176483516483516,158.46923076923076,-244.29007633587787,-117.25190839694656,1.9465648854961832,2497.2477064220184,-132.8440366972477,-257.70642201834863,,
1760462334.4220097,113,-0.5677582417582419,1.5451648351648353,160.26593406593406,240.35114503816797,-121.16030534351144,1.9465648854961832,2555.9633027522937,-156.3302752293578,-281.1926605504587,,
1760462334.4431994,114,-0.7689890109890111,1.6601538461538463,152.9641318681319,234.4885496183206,-138.74809160305344,1.9465648854961832,2614.678899082569,-179.8165137614679,-210.7339449541284,,
1760462334.4539015,115,-0.5677582417582419,1.724835164835165,162.02670329670332,228.6259541984733,-125.06870229007632,1.9465648854961832,2673.394495412844,-156.3302752293578,-210.7339449541284,,
1760462334.4750788,116,-0.6827472527472528,1.8110769230769237,147.32248351648352,234.4885496183206,-119.206106870229,1.9465648854961832,2732.110091743119,-179.8165137614679,-281.1926605504587,,
1760462334.506812,117,-0.5174505494505495,1.767956043956044,147.37279120879123,-246.24427480916032,-127.02290076335878,1.9465648854961832,2790.8256880733943,-179.8165137614679,-210.7339449541284,,
1760462334.5174427,118,1.193010989010989,0.0,161.97639560439563,240.35114503816797,-134.83969465648855,1.9465648854961832,2849.5412844036696,-132.8440366972477,-234.2201834862385,,
1760462334.538758,119,-0.5533846153846155,1.6457802197802198,149.2198021978022,248.1679389312977,-119.206106870229,1.9465648854961832,2908.256880733945,-156.3302752293578,-281.1926605504587,,
1760462334.5703971,120,-0.5893186813186814,1.5236043956043956,145.43953846153846,238.3969465648855,-130.93129770992363,1.9465648854961832,2966.97247706422,-132.8440366972477,-210.7339449541284,,
1760462334.5811384,121,-0.6755604395604397,1.724835164835165,171.33362637362637,224.7175572519084,-125.06870229007632,1.9465648854961832,-2986.788990825688,-156.3302752293578,-281.1926605504587,,
1760462334.6024594,122,-0.5893186813186814,1.7751428571428571,163.9743296703297,234.4885496183206,-130.93129770992363,1.9465648854961832,-2928.0733944954127,-156.3302752293578,-234.2201834862385,,
1760462334.6132402,123,1.2720659340659342,0.0071868131868131,152.9641318681319,-240.38167938931295,-123.1145038167939,1.9465648854961832,-2869.357798165138,-179.8165137614679,-304.6788990825688,,
1760462334.6344774,124,-0.5030769230769231,1.6960879120879122,156.5719120879121,-248.19847328244276,-125.06870229007632,1.9465648854961832,-2810.6422018348626,-156.3302752293578,-234.2201834862385,,
1760462334.666243,125,-0.5893186813186814,1.6026593406593408,154.8327032967033,250.12213740458012,-127.02290076335878,1.9465648854961832,-2751.9266055045878,-203.302752293578,-257.70642201834863,,
1760462334.6769223,126,-0.5821318681318681,1.7392087912087917,154.68178021978022,236.44274809160305,-128.9770992366412,1.9465648854961832,-2693.211009174312,-179.8165137614679,-234.2201834862385,,
1760462334.698315,127,-0.5533846153846155,1.7463956043956046,145.58327472527475,218.85496183206104,-111.38931297709924,1.9465648854961832,-2634.4954128440368,-156.3302752293578,-210.7339449541284,,
1760462334.7090406,128,-0.5605714285714286,1.609846153846154,162.09857142857146,244.25954198473283,-128.9770992366412,1.9465648854961832,-2575.779816513761,-179.8165137614679,-281.1926605504587,,
1760462334.7302113,129,-0.5893186813186814,1.7823296703296705,152.97131868131868,236.44274809160305,-123.1145038167939,1.9465648854961832,-2517.064220183486,-179.8165137614679,-281.1926605504587,,
1760462334.7619884,130,-0.7258681318681319,1.7751428571428571,145.41797802197803,250.12213740458012,-123.1145038167939,1.9465648854961832,-2458.348623853211,-179.8165137614679,-281.1926605504587,,
1760462334.772847,131,1.2720659340659342,0.0646813186813186,149.24854945054946,234.4885496183206,-134.83969465648855,1.9465648854961832,-2399.633027522936,-156.3302752293578,-281.1926605504587,,
1760462334.794064,132,-0.6468131868131869,1.6817142857142855,156.5287912087912,230.5801526717557,-130.93129770992363,1.9465648854961832,-2340.9174311926604,-132.8440366972477,-281.1926605504587,,
1760462334.8259792,133,-0.6036923076923078,1.7032747252747251,156.57909890109892,250.12213740458012,-125.06870229007632,1.9465648854961832,-2282.201834862385,-179.8165137614679,-210.7339449541284,,
1760462334.8366306,134,-0.7689890109890111,1.609846153846154,149.17668131868132,228.6259541984733,-121.16030534351144,1.9465648854961832,-2223.4862385321103,-203.302752293578,-210.7339449541284,,
1760462334.857933,135,-0.5246373626373626,1.6026593406593408,156.5144175824176,224.7175572519084,-136.793893129771,1.9465648854961832,-2164.770642201835,-179.8165137614679,-304.6788990825688,,
1760462334.8896306,136,-0.6180659340659341,1.6960879120879122,149.19824175824175,232.53435114503816,-123.1145038167939,1.9465648854961832,-2106.05504587156,-179.8165137614679,-234.2201834862385,,
1760462334.9003494,137,-0.6324395604395605,1.7607692307692309,156.66534065934067,238.3969465648855,-125.06870229007632,1.9465648854961832,-2047.3394495412845,-132.8440366972477,-234.2201834862385,,
1760462334.911124,138,-0.5893186813186814,1.8110769230769237,147.30092307692308,240.35114503816797,-121.16030534351144,1.9465648854961832,-1988.6238532110087,-203.302752293578,-210.7339449541284,,
1760462334.9220436,139,-0.5461978021978022,1.7320219780219783,151.16024175824177,248.1679389312977,-125.06870229007632,1.9465648854961832,-1929.908256880734,-179.8165137614679,-257.70642201834863,,
1760462334.9432323,140,-0.6468131868131869,1.80389010989011,158.45485714285715,234.4885496183206,-136.793893129771,1.9465648854961832,-1871.1926605504584,-156.3302752293578,-257.70642201834863,,
1760462334.9747748,141,-0.5893186813186814,1.7751428571428571,158.46923076923076,234.4885496183206,-121.16030534351144,1.9465648854961832,-1812.4770642201836,-156.3302752293578,-257.70642201834863,,
1760462334.985336,142,-0.5605714285714286,1.7463956043956046,160.1365714285714,240.35114503816797,-127.02290076335878,1.9465648854961832,-1753.7614678899083,-156.3302752293578,-234.2201834862385,,
1760462335.0064404,143,-0.7114945054945055,1.7176483516483516,145.43953846153846,232.53435114503816,-125.06870229007632,1.9465648854961832,-1695.045871559633,-179.8165137614679,-234.2201834862385,,
1760462335.017164,144,-0.5893186813186814,1.631406593406593,152.8635164835165,242.3053435114504,-125.06870229007632,1.9465648854961832,-1636.3302752293578,-203.302752293578,-328.1651376146789,,
1760462335.0487,145,-0.5965054945054945,1.5810989010989014,158.46923076923076,244.25954198473283,-125.06870229007632,1.9465648854961832,-1577.6146788990825,-156.3302752293578,-281.1926605504587,,
1760462335.0801914,146,-0.6611868131868132,1.7535824175824175,158.31830769230768,240.35114503816797,-121.16030534351144,1.9465648854961832,-1518.8990825688072,-156.3302752293578,-234.2201834862385,,
1760462335.0908818,147,-0.6396263736263736,1.6385934065934065,158.41892307692308,236.44274809160305,-127.02290076335878,1.9465648854961832,-1460.1834862385322,-132.8440366972477,-257.70642201834863,,
1760462335.1120515,148,-0.6396263736263736,1.7104615384615385,152.921010989011,234.4885496183206,-130.93129770992363,1.9465648854961832,-1401.467889908257,-203.302752293578,-234.2201834862385,,
1760462335.1334093,149,-0.6755604395604397,1.6529670329670332,152.8707032967033,240.35114503816797,-125.06870229007632,1.9465648854961832,-1342.7522935779816,-203.302752293578,-234.2201834862385,,
1760462335.1440868,150,-0.6180659340659341,1.537978021978022,141.86769230769232,242.3053435114504,-127.02290076335878,1.9465648854961832,-1284.0366972477063,-179.8165137614679,-234.2201834862385,,
1760462335.1654878,151,-0.5965054945054945,1.6529670329670332,154.8327032967033,236.44274809160305,-127.02290076335878,1.9465648854961832,-1225.321100917431,-226.78899082568807,-234.2201834862385,,
1760462335.1762016,152,-0.6755604395604397,1.6529670329670332,162.09138461538464,248.1679389312977,-119.206106870229,1.9465648854961832,-1166.6055045871558,-179.8165137614679,-234.2201834862385,,
1760462335.1973832,153,-0.6324395604395605,1.6242197802197802,141.72395604395606,228.6259541984733,-127.02290076335878,1.9465648854961832,-1107.8899082568807,-179.8165137614679,-210.7339449541284,,
1760462335.2289245,154,-0.6252527472527473,1.7463956043956046,163.90964835164837,244.25954198473283,-128.9770992366412,1.9465648854961832,-1049.1743119266057,-132.8440366972477,-234.2201834862385,,
1760462335.2397096,155,-0.7043076923076923,1.6817142857142855,154.768021978022,234.4885496183206,-123.1145038167939,1.9465648854961832,-990.4587155963302,-179.8165137614679,-257.70642201834863,,
1760462335.260918,156,-0.5677582417582419,1.609846153846154,158.30393406593407,-244.29007633587787,-127.02290076335878,1.9465648854961832,-931.7431192660548,-156.3302752293578,-257.70642201834863,,
1760462335.2928915,157,-0.5965054945054945,1.6960879120879122,145.5617142857143,228.6259541984733,-109.4351145038168,1.9465648854961832,-873.0275229357798,-109.35779816513762,-234.2201834862385,,
1760462335.303544,158,-0.6108791208791209,1.7751428571428571,163.94558241758244,232.53435114503816,-128.9770992366412,1.9465648854961832,-814.3119266055045,-179.8165137614679,-281.1926605504587,,
1760462335.3248496,159,-0.6036923076923078,1.6385934065934065,154.64584615384618,222.763358778626,-132.8854961832061,1.9465648854961832,-755.5963302752293,-132.8440366972477,-257.70642201834863,,
1760462335.3354375,160,-0.5965054945054945,1.631406593406593,139.98474725274727,238.3969465648855,-130.93129770992363,1.9465648854961832,-696.8807339449542,-179.8165137614679,-257.70642201834863,,
1760462335.3566403,161,-0.5533846153846155,1.6601538461538463,154.78958241758244,248.1679389312977,-121.16030534351144,1.9465648854961832,-638.1651376146789,-203.302752293578,-281.1926605504587,,
1760462335.3884642,162,-0.6108791208791209,1.7104615384615385,160.22281318681317,-246.24427480916032,-132.8854961832061,1.9465648854961832,-579.4495412844037,-132.8440366972477,-234.2201834862385,,
1760462335.399077,163,-0.5461978021978022,1.6529670329670332,161.98358241758245,248.1679389312977,-125.06870229007632,1.9465648854961832,-520.7339449541284,-179.8165137614679,-234.2201834862385,,
1760462335.4203815,164,-0.6036923076923078,1.7320219780219783,151.0668131868132,240.35114503816797,-125.06870229007632,1.9465648854961832,-462.0183486238532,-179.8165137614679,-234.2201834862385,,
1760462335.452083,165,-0.4815164835164835,1.5954725274725277,156.57909890109892,234.4885496183206,-134.83969465648855,1.9465648854961832,-403.302752293578,-132.8440366972477,-210.7339449541284,,
1760462335.4732313,166,-0.5893186813186814,1.6385934065934065,152.94975824175825,226.67175572519085,-115.29770992366412,1.9465648854961832,-344.58715596330273,-203.302752293578,-257.70642201834863,,
1760462335.4838903,167,-0.5893186813186814,1.767956043956044,156.615032967033,-248.19847328244276,-125.06870229007632,1.9465648854961832,-285.8715596330275,-156.3302752293578,-234.2201834862385,,
1760462335.5052197,168,-0.6755604395604397,1.7535824175824175,162.0626373626374,250.12213740458012,-128.9770992366412,1.9465648854961832,-227.15596330275227,-179.8165137614679,-234.2201834862385,,
1760462335.5158277,169,-0.7761758241758242,1.724835164835165,154.7177142857143,238.3969465648855,-138.74809160305344,1.9465648854961832,-168.44036697247705,-179.8165137614679,-234.2201834862385,,
1760462335.5371208,170,1.228945054945055,0.0215604395604395,151.04525274725276,236.44274809160305,-128.9770992366412,1.9465648854961832,-109.72477064220185,-179.8165137614679,-257.70642201834863,,
1760462335.5478356,171,-0.5893186813186814,1.7032747252747251,143.62846153846155,226.67175572519085,-128.9770992366412,1.9465648854961832,-51.00917431192661,-156.3302752293578,-281.1926605504587,,
1760462335.569038,172,-0.5677582417582419,1.6242197802197802,158.49079120879122,244.25954198473283,-128.9770992366412,1.9465648854961832,7.706422018348624,-156.23853211009174,-257.70642201834863,,
1760462335.6008017,173,-0.5605714285714286,1.6601538461538463,167.5821098901099,246.21374045801528,-127.02290076335878,1.9465648854961832,66.42201834862385,-156.23853211009174,-234.2201834862385,,
1760462335.6115334,174,-0.5821318681318681,1.6529670329670332,158.4261098901099,250.12213740458012,-130.93129770992363,1.9465648854961832,125.13761467889908,-179.72477064220183,-234.2201834862385,,
1760462335.6328926,175,-0.574945054945055,1.6601538461538463,163.90964835164837,238.3969465648855,-132.8854961832061,1.9465648854961832,183.85321100917432,-156.23853211009174,-257.70642201834863,,
1760462335.6437323,176,-0.5893186813186814,1.6026593406593408,158.41173626373626,224.7175572519084,-123.1145038167939,1.9465648854961832,242.56880733944956,-179.72477064220183,-234.2201834862385,,
1760462335.675421,177,-0.7258681318681319,1.7104615384615385,154.768021978022,230.5801526717557,-127.02290076335878,1.9465648854961832,301.2844036697248,-156.23853211009174,-281.1926605504587,,
1760462335.6965103,178,-0.654,1.7607692307692309,145.4539120879121,232.53435114503816,-123.1145038167939,1.9465648854961832,360.0,-132.75229357798167,-257.70642201834863,,
1760462335.70726,179,-0.5821318681318681,1.724835164835165,149.2126153846154,240.35114503816797,-123.1145038167939,1.9465648854961832,418.7155963302752,-132.75229357798167,-281.1926605504587,,
1760462335.7390933,180,-0.5533846153846155,1.7320219780219783,150.96619780219785,248.1679389312977,-134.83969465648855,1.9465648854961832,477.4311926605504,-179.72477064220183,-210.7339449541284,,
1760462335.749708,181,-0.6827472527472528,1.7463956043956046,149.2198021978022,242.3053435114504,-113.34351145038168,1.9465648854961832,536.1467889908257,-156.23853211009174,-210.7339449541284,,
1760462335.7710817,182,-0.5318241758241758,1.6673406593406594,163.90246153846155,246.21374045801528,-130.93129770992363,1.9465648854961832,594.8623853211009,-132.75229357798167,-234.2201834862385,,
1760462335.7922325,183,-0.5533846153846155,1.6026593406593408,158.41173626373626,220.8091603053435,-121.16030534351144,1.9465648854961832,653.5779816513761,-179.72477064220183,-234.2201834862385,,
1760462335.8029108,184,-0.7330549450549451,1.5882857142857143,152.9353846153846,232.53435114503816,-123.1145038167939,1.9465648854961832,712.2935779816513,-179.72477064220183,-234.2201834862385,,
1760462335.824149,185,-0.539010989010989,1.566725274725275,151.05962637362637,250.12213740458012,-119.206106870229,1.9465648854961832,771.0091743119266,-179.72477064220183,-257.70642201834863,,
1760462335.8559723,186,-0.6036923076923078,1.7032747252747251,163.92402197802198,244.25954198473283,-130.93129770992363,1.9465648854961832,829.7247706422019,-156.23853211009174,-234.2201834862385,,
1760462335.866696,187,-0.5821318681318681,1.6457802197802198,165.8357142857143,228.6259541984733,-128.9770992366412,1.9465648854961832,888.440366972477,-179.72477064220183,-234.2201834862385,,
1760462335.9195387,188,-0.6611868131868132,1.7392087912087917,149.2126153846154,234.4885496183206,-130.93129770992363,1.9465648854961832,947.1559633027524,-132.75229357798167,-210.7339449541284,,
1760462335.9301448,189,-0.5461978021978022,1.7751428571428571,143.70751648351649,228.6259541984733,-130.93129770992363,1.9465648854961832,1005.8715596330276,-179.72477064220183,-234.2201834862385,,
1760462335.9409437,190,-0.6036923076923078,1.7607692307692309,143.69314285714285,242.3053435114504,-128.9770992366412,1.9465648854961832,1064.5871559633028,-156.23853211009174,-234.2201834862385,,
1760462335.951673,191,-0.6252527472527473,1.5954725274725277,156.5216043956044,-246.24427480916032,-128.9770992366412,1.9465648854961832,1123.302752293578,-203.21100917431195,-304.6788990825688,,
1760462335.9622953,192,-0.6036923076923078,1.8182637362637364,162.17043956043958,-246.24427480916032,-138.74809160305344,1.9465648854961832,1182.0183486238532,-179.72477064220183,-257.70642201834863,,
1760462335.983718,193,-0.5102637362637363,1.7751428571428571,151.00213186813187,236.44274809160305,-134.83969465648855,1.9465648854961832,1240.7339449541284,-203.21100917431195,-281.1926605504587,,
1760462336.0154998,194,-0.574945054945055,1.6673406593406594,162.16325274725278,228.6259541984733,-130.93129770992363,1.9465648854961832,1299.4495412844035,-109.26605504587155,-257.70642201834863,,
1760462336.0262203,195,-0.6252527472527473,1.7607692307692309,154.768021978022,238.3969465648855,-138.74809160305344,1.9465648854961832,1358.165137614679,-226.697247706422,-281.1926605504587,,
1760462336.0472493,196,-0.6180659340659341,1.6960879120879122,160.15094505494503,238.3969465648855,-127.02290076335878,1.9465648854961832,1416.880733944954,-132.75229357798167,-257.70642201834863,,
1760462336.0579245,197,-0.6468131868131869,1.617032967032967,156.58628571428574,-240.38167938931295,-128.9770992366412,1.9465648854961832,1475.596330275229,-156.23853211009174,-210.7339449541284,,
1760462336.079018,198,-0.5677582417582419,1.6745274725274726,151.10274725274726,-246.24427480916032,-125.06870229007632,1.9465648854961832,1534.3119266055046,-109.26605504587155,-234.2201834862385,,
1760462336.11083,199,-0.6468131868131869,1.7607692307692309,164.00307692307695,238.3969465648855,-128.9770992366412,1.9465648854961832,1593.02752293578,-156.23853211009174,-234.2201834862385,,
1760462336.1215508,200,-0.574945054945055,1.7751428571428571,151.18898901098902,234.4885496183206,-130.93129770992363,1.9465648854961832,1651.743119266055,-179.72477064220183,-281.1926605504587,,
1760462336.1429658,201,-0.5030769230769231,1.7607692307692309,149.13356043956043,224.7175572519084,-117.25190839694656,1.9465648854961832,1710.4587155963302,-156.23853211009174,-257.70642201834863,,
1760462336.153693,202,-0.6180659340659341,1.5595384615384615,160.31624175824174,224.7175572519084,-119.206106870229,1.9465648854961832,1769.1743119266057,-156.23853211009174,-234.2201834862385,,
1760462336.1749542,203,-0.5965054945054945,1.688901098901099,149.17668131868132,246.21374045801528,-132.8854961832061,1.9465648854961832,1827.8899082568803,-179.72477064220183,-234.2201834862385,,
1760462336.2064638,204,-0.6180659340659341,1.6242197802197802,152.77008791208792,242.3053435114504,-134.83969465648855,1.9465648854961832,1886.605504587156,-156.23853211009174,-281.1926605504587,,
1760462336.2171123,205,-0.6396263736263736,1.631406593406593,151.21773626373627,240.35114503816797,-127.02290076335878,1.9465648854961832,1945.321100917431,-156.23853211009174,-281.1926605504587,,
1760462336.2385068,206,-0.539010989010989,1.5092307692307694,154.7249010989011,226.67175572519085,-127.02290076335878,1.9465648854961832,2004.0366972477063,-132.75229357798167,-257.70642201834863,,
1760462336.270165,207,-0.4887032967032967,1.688901098901099,151.08118681318683,234.4885496183206,-121.16030534351144,1.9465648854961832,2062.7522935779816,-156.23853211009174,-257.70642201834863,,
1760462336.280816,208,-0.459956043956044,1.7463956043956046,163.99589010989013,242.3053435114504,-128.9770992366412,1.9465648854961832,2121.467889908257,-179.72477064220183,-234.2201834862385,,
1760462336.3021138,209,-0.574945054945055,1.7392087912087917,158.45485714285715,232.53435114503816,-127.02290076335878,1.9465648854961832,2180.183486238532,-156.23853211009174,-281.1926605504587,,
1760462336.3128116,210,-0.5102637362637363,1.6745274725274726,167.6324175824176,-248.19847328244276,-130.93129770992363,1.9465648854961832,2238.8990825688074,-179.72477064220183,-234.2201834862385,,
1760462336.3445263,211,1.2361318681318685,0.0359340659340659,147.35123076923077,236.44274809160305,-127.02290076335878,1.9465648854961832,2297.6146788990823,-156.23853211009174,-234.2201834862385,,
1760462336.3554344,212,-0.539010989010989,1.724835164835165,138.21679120879122,240.35114503816797,-136.793893129771,1.9465648854961832,2356.330275229357,-156.23853211009174,-257.70642201834863,,
1760462336.37669,213,-0.5605714285714286,1.6601538461538463,151.09556043956044,224.7175572519084,-117.25190839694656,1.9465648854961832,2415.045871559633,-156.23853211009174,-210.7339449541284,,
1760462336.4084237,214,-0.5533846153846155,1.724835164835165,158.41892307692308,230.5801526717557,-123.1145038167939,1.9465648854961832,2473.761467889908,-203.21100917431195,-187.24770642201835,,
1760462336.4191115,215,-0.6611868131868132,1.7104615384615385,160.22281318681317,238.3969465648855,-136.793893129771,1.9465648854961832,2532.477064220184,-179.72477064220183,-257.70642201834863,,
1760462336.440384,216,-0.6396263736263736,1.6457802197802198,149.31323076923076,246.21374045801528,-121.16030534351144,1.9465648854961832,2591.192660550458,-203.21100917431195,-257.70642201834863,,
1760462336.4510608,217,-0.5533846153846155,1.609846153846154,149.2772967032967,230.5801526717557,-121.16030534351144,1.9465648854961832,2649.908256880734,-179.72477064220183,-281.1926605504587,,
1760462336.472365,218,-0.574945054945055,1.7607692307692309,160.26593406593406,240.35114503816797,-125.06870229007632,1.9465648854961832,2708.623853211009,-132.75229357798167,-234.2201834862385,,
1760462336.503941,219,-0.5893186813186814,1.5954725274725277,160.27312087912088,246.21374045801528,-121.16030534351144,1.9465648854961832,2767.3394495412845,-132.75229357798167,-281.1926605504587,,
1760462336.5251524,220,-0.5821318681318681,1.7032747252747251,156.55035164835166,250.12213740458012,-130.93129770992363,1.9465648854961832,2826.05504587156,-156.23853211009174,-234.2201834862385,,
1760462336.5358727,221,-0.5318241758241758,1.7463956043956046,162.1273186813187,236.44274809160305,-136.793893129771,1.9465648854961832,2884.7706422018346,-179.72477064220183,-257.70642201834863,,
1760462336.557068,222,-0.6036923076923078,1.6745274725274726,160.20125274725274,248.1679389312977,-128.9770992366412,1.9465648854961832,2943.48623853211,-179.72477064220183,-234.2201834862385,,
1760462336.5678496,223,-0.5677582417582419,1.7463956043956046,154.67459340659343,240.35114503816797,-123.1145038167939,1.9465648854961832,3002.201834862385,-132.75229357798167,-257.70642201834863,,
1760462336.5996346,224,-0.6180659340659341,1.724835164835165,165.7854065934066,232.53435114503816,-134.83969465648855,1.9465648854961832,-2951.559633027523,-156.23853211009174,-257.70642201834863,,
1760462336.6104112,225,-0.6252527472527473,1.5882857142857143,145.54734065934068,242.3053435114504,-125.06870229007632,1.9465648854961832,-2892.844036697248,-156.23853211009174,-234.2201834862385,,
1760462336.631599,226,-0.5318241758241758,1.5595384615384615,156.56472527472528,232.53435114503816,-121.16030534351144,1.9465648854961832,-2834.1284403669724,-156.23853211009174,-234.2201834862385,,
1760462336.663242,227,-0.6036923076923078,1.6529670329670332,147.3656043956044,-248.19847328244276,-127.02290076335878,1.9465648854961832,-2775.412844036697,-203.21100917431195,-234.2201834862385,,
1760462336.674009,228,-0.5533846153846155,1.6960879120879122,149.12637362637363,246.21374045801528,-127.02290076335878,1.9465648854961832,-2716.697247706422,-156.23853211009174,-234.2201834862385,,
1760462336.6953108,229,-0.6180659340659341,1.6457802197802198,158.39736263736265,236.44274809160305,-125.06870229007632,1.9465648854961832,-2657.9816513761466,-156.23853211009174,-163.76146788990826,,
1760462336.7059965,230,-0.4743296703296704,1.7463956043956046,156.53597802197802,226.67175572519085,-138.74809160305344,1.9465648854961832,-2599.266055045872,-132.75229357798167,-210.7339449541284,,
1760462336.7272806,231,-0.7114945054945055,1.7320219780219783,162.02670329670332,234.4885496183206,-128.9770992366412,1.9465648854961832,-2540.5504587155965,-156.23853211009174,-187.24770642201835,,
1760462336.7590532,232,-0.5030769230769231,1.724835164835165,154.74646153846157,236.44274809160305,-138.74809160305344,1.9465648854961832,-2481.834862385321,-179.72477064220183,-281.1926605504587,,
1760462336.7696347,233,-0.5102637362637363,1.724835164835165,160.30905494505495,246.21374045801528,-111.38931297709924,1.9465648854961832,-2423.119266055046,-156.23853211009174,-281.1926605504587,,
1760462336.790949,234,-0.5677582417582419,1.6745274725274726,149.18386813186814,246.21374045801528,-127.02290076335878,1.9465648854961832,-2364.4036697247707,-132.75229357798167,-210.7339449541284,,
1760462336.801564,235,-0.7546153846153847,1.6026593406593408,161.99076923076925,248.1679389312977,-127.02290076335878,1.9465648854961832,-2305.6880733944954,-179.72477064220183,-257.70642201834863,,
1760462336.822813,236,-0.5533846153846155,1.6385934065934065,149.2772967032967,238.3969465648855,-138.74809160305344,1.9465648854961832,-2246.97247706422,-156.23853211009174,-234.2201834862385,,
1760462336.854738,237,-0.6396263736263736,1.6529670329670332,141.83894505494507,224.7175572519084,-138.74809160305344,1.9465648854961832,-2188.256880733945,-203.21100917431195,-257.70642201834863,,
1760462336.8653677,238,-0.7186813186813188,1.5595384615384615,154.7249010989011,240.35114503816797,-132.8854961832061,1.9465648854961832,-2129.5412844036696,-132.75229357798167,-234.2201834862385,,
1760462336.8868313,239,-0.574945054945055,1.6529670329670332,139.97756043956045,236.44274809160305,-117.25190839694656,1.9465648854961832,-2070.8256880733943,-156.23853211009174,-234.2201834862385,,
1760462336.8974175,240,-0.6252527472527473,1.6457802197802198,143.58534065934066,242.3053435114504,-132.8854961832061,1.9465648854961832,-2012.1100917431197,-179.72477064220183,-257.70642201834863,,
1760462336.918602,241,-0.6324395604395605,1.7320219780219783,156.53597802197802,240.35114503816797,-128.9770992366412,1.9465648854961832,-1953.394495412844,-156.23853211009174,-281.1926605504587,,
1760462336.9502058,242,-0.4815164835164835,1.767956043956044,158.3254945054945,230.5801526717557,-128.9770992366412,1.9465648854961832,-1894.6788990825687,-203.21100917431195,-210.7339449541284,,
1760462336.960889,243,-0.5102637362637363,1.7535824175824175,156.6294065934066,236.44274809160305,-121.16030534351144,1.9465648854961832,-1835.9633027522937,-250.1834862385321,-234.2201834862385,,
1760462336.9821854,244,-0.5246373626373626,1.6960879120879122,156.56472527472528,240.35114503816797,-128.9770992366412,1.9465648854961832,-1777.2477064220184,-179.72477064220183,-234.2201834862385,,
1760462337.013997,245,-0.5030769230769231,1.7607692307692309,160.20843956043956,234.4885496183206,-134.83969465648855,1.9465648854961832,-1718.532110091743,-156.23853211009174,-281.1926605504587,,
1760462337.024789,246,-0.6252527472527473,1.6026593406593408,154.768021978022,250.12213740458012,-127.02290076335878,1.9465648854961832,-1659.8165137614678,-132.75229357798167,-257.70642201834863,,
1760462337.0459669,247,-0.5461978021978022,1.7320219780219783,160.35217582417582,236.44274809160305,-128.9770992366412,1.9465648854961832,-1601.1009174311926,-156.23853211009174,-210.7339449541284,,
1760462337.0567985,248,-0.6036923076923078,1.7967032967032968,145.5689010989011,236.44274809160305,-121.16030534351144,1.9465648854961832,-1542.3853211009173,-179.72477064220183,-281.1926605504587,,
1760462337.0780332,249,-0.574945054945055,1.6026593406593408,149.25573626373625,234.4885496183206,-115.29770992366412,1.9465648854961832,-1483.6697247706422,-156.23853211009174,-257.70642201834863,,
1760462337.109829,250,-0.5677582417582419,1.7967032967032968,151.08837362637362,232.53435114503816,-125.06870229007632,1.9465648854961832,-1424.954128440367,-179.72477064220183,-210.7339449541284,,
1760462337.120411,251,-0.5821318681318681,1.767956043956044,149.1694945054945,248.1679389312977,-121.16030534351144,1.9465648854961832,-1366.2385321100917,-179.72477064220183,-234.2201834862385,,
1760462337.1417124,252,-0.7258681318681319,1.7895164835164834,152.89226373626374,248.1679389312977,-125.06870229007632,1.9465648854961832,-1307.5229357798164,-156.23853211009174,-210.7339449541284,,
1760462337.173433,253,1.2720659340659342,0.0287472527472527,145.5114065934066,244.25954198473283,-134.83969465648855,1.9465648854961832,-1248.8073394495411,-156.23853211009174,-187.24770642201835,,
1760462337.184142,254,-0.4671428571428571,1.6673406593406594,158.46923076923076,228.6259541984733,-127.02290076335878,1.9465648854961832,-1190.091743119266,-132.75229357798167,-257.70642201834863,,
1760462337.1950035,255,-0.5246373626373626,1.6457802197802198,147.43747252747252,228.6259541984733,-123.1145038167939,1.9465648854961832,-1131.3761467889908,-179.72477064220183,-281.1926605504587,,
1760462337.2058215,256,-0.6755604395604397,1.688901098901099,143.6140879120879,238.3969465648855,-113.34351145038168,1.9465648854961832,-1072.6605504587155,-132.75229357798167,-281.1926605504587,,
1760462337.2378747,257,-0.5821318681318681,1.688901098901099,163.9312087912088,236.44274809160305,-123.1145038167939,1.9465648854961832,-1013.9449541284404,-132.75229357798167,-234.2201834862385,,
1760462337.2696218,258,-0.6324395604395605,1.7176483516483516,154.74646153846157,236.44274809160305,-128.9770992366412,1.9465648854961832,-955.2293577981652,-156.23853211009174,-234.2201834862385,,
1760462337.28044,259,-0.6899340659340659,1.609846153846154,171.2976923076923,244.25954198473283,-121.16030534351144,1.9465648854961832,-896.5137614678898,-179.72477064220183,-281.1926605504587,,
1760462337.301788,260,-0.5893186813186814,1.7463956043956046,163.84496703296705,224.7175572519084,-127.02290076335878,1.9465648854961832,-837.7981651376147,-179.72477064220183,-210.7339449541284,,
1760462337.3123882,261,-0.4958901098901099,1.7392087912087917,154.74646153846157,230.5801526717557,-121.16030534351144,1.9465648854961832,-779.0825688073395,-156.23853211009174,-210.7339449541284,,
1760462337.3337584,262,-0.6755604395604397,1.6529670329670332,152.9641318681319,224.7175572519084,-127.02290076335878,1.9465648854961832,-720.3669724770642,-156.23853211009174,-234.2201834862385,,
1760462337.3550658,263,-0.6180659340659341,1.8326373626373629,152.89945054945056,-244.29007633587787,-130.93129770992363,1.9465648854961832,-661.651376146789,-156.23853211009174,-257.70642201834863,,
1760462337.365837,264,-0.5893186813186814,1.7320219780219783,160.4024835164835,234.4885496183206,-123.1145038167939,1.9465648854961832,-602.9357798165138,-203.21100917431195,-257.70642201834863,,
1760462337.386919,265,-0.6252527472527473,1.7823296703296705,152.83476923076924,232.53435114503816,-127.02290076335878,1.9465648854961832,-544.2201834862385,-156.23853211009174,-234.2201834862385,,
1760462337.4185138,266,-0.5533846153846155,1.7463956043956046,141.85331868131868,232.53435114503816,-121.16030534351144,1.9465648854961832,-485.5045871559633,-132.75229357798167,-234.2201834862385,,
1760462337.429256,267,-0.7186813186813188,1.6457802197802198,156.6294065934066,222.763358778626,-125.06870229007632,1.9465648854961832,-426.7889908256881,-179.72477064220183,-257.70642201834863,,
1760462337.450525,268,-0.6324395604395605,1.617032967032967,162.0698241758242,244.25954198473283,-125.06870229007632,1.9465648854961832,-368.07339449541286,-156.23853211009174,-281.1926605504587,,
1760462337.4612546,269,-0.6324395604395605,1.688901098901099,165.73509890109892,230.5801526717557,-119.206106870229,1.9465648854961832,-309.3577981651376,-179.72477064220183,-210.7339449541284,,
1760462337.482632,270,-0.5605714285714286,1.7607692307692309,158.47641758241758,236.44274809160305,-138.74809160305344,1.9465648854961832,-250.6422018348624,-156.23853211009174,-257.70642201834863,,
1760462337.5143816,271,-0.7114945054945055,1.724835164835165,154.6099120879121,248.1679389312977,-128.9770992366412,1.9465648854961832,-191.92660550458717,-179.72477064220183,-234.2201834862385,,
1760462337.5251377,272,-0.5677582417582419,1.573912087912088,149.23417582417582,224.7175572519084,-138.74809160305344,1.9465648854961832,-133.21100917431193,-179.72477064220183,-257.70642201834863,,
1760462337.546331,273,-0.6180659340659341,1.688901098901099,158.43329670329672,232.53435114503816,-128.9770992366412,1.9465648854961832,-74.49541284403671,-203.21100917431195,-304.6788990825688,,
1760462337.5781927,274,-0.5965054945054945,1.80389010989011,151.04525274725276,226.67175572519085,-128.9770992366412,1.9465648854961832,-15.77981651376147,-156.23853211009174,-234.2201834862385,,
1760462337.589078,275,-0.6036923076923078,1.6960879120879122,154.73927472527475,-246.24427480916032,-119.206106870229,1.9465648854961832,42.935779816513765,-156.14678899082568,-304.6788990825688,,
1760462337.610358,276,-0.5821318681318681,1.5882857142857143,149.35635164835165,238.3969465648855,-132.8854961832061,1.9465648854961832,101.651376146789,-179.63302752293578,-281.1926605504587,,
1760462337.6421108,277,-0.7330549450549451,1.5954725274725277,163.93839560439562,240.35114503816797,-138.74809160305344,1.9465648854961832,160.36697247706422,-156.14678899082568,-257.70642201834863,,
1760462337.6527846,278,-0.574945054945055,1.6385934065934065,152.85632967032967,230.5801526717557,-125.06870229007632,1.9465648854961832,219.08256880733944,-156.14678899082568,-281.1926605504587,,
1760462337.673892,279,-0.5174505494505495,1.6601538461538463,149.2701098901099,238.3969465648855,-123.1145038167939,1.9465648854961832,277.79816513761466,-156.14678899082568,-257.70642201834863,,
1760462337.684484,280,-0.5965054945054945,1.6385934065934065,158.49079120879122,244.25954198473283,-128.9770992366412,1.9465648854961832,336.51376146788994,-226.605504587156,-210.7339449541284,,
1760462337.7058344,281,-0.6971208791208792,1.7104615384615385,147.3081098901099,-246.24427480916032,-125.06870229007632,1.9465648854961832,395.2293577981652,-132.6605504587156,-210.7339449541284,,
1760462337.737681,282,-0.574945054945055,1.7823296703296705,151.09556043956044,242.3053435114504,-127.02290076335878,1.9465648854961832,453.9449541284403,-156.14678899082568,-234.2201834862385,,
1760462337.7483327,283,-0.6396263736263736,1.6817142857142855,156.6294065934066,240.35114503816797,-130.93129770992363,1.9465648854961832,512.6605504587155,-156.14678899082568,-210.7339449541284,,
1760462337.7591944,284,-0.6036923076923078,1.6385934065934065,156.53597802197802,236.44274809160305,-128.9770992366412,1.9465648854961832,571.3761467889908,-156.14678899082568,-234.2201834862385,,
1760462337.7699556,285,-0.7114945054945055,1.7176483516483516,151.09556043956044,240.35114503816797,-125.06870229007632,1.9465648854961832,630.0917431192661,-179.63302752293578,-234.2201834862385,,
1760462337.8017445,286,-0.4671428571428571,1.7104615384615385,145.52578021978024,236.44274809160305,-132.8854961832061,1.9465648854961832,688.8073394495412,-156.14678899082568,-234.2201834862385,,
1760462337.8334904,287,-0.6611868131868132,1.6457802197802198,158.51235164835165,236.44274809160305,-138.74809160305344,1.9465648854961832,747.5229357798165,-132.6605504587156,-257.70642201834863,,
1760462337.8441918,288,-0.5605714285714286,1.5954725274725277,152.95694505494507,246.21374045801528,-128.9770992366412,1.9465648854961832,806.2385321100917,-179.63302752293578,-304.6788990825688,,
1760462337.8654995,289,-0.7186813186813188,1.6960879120879122,160.24437362637363,246.21374045801528,-123.1145038167939,1.9465648854961832,864.954128440367,-226.605504587156,-234.2201834862385,,
1760462337.8867762,290,-0.5677582417582419,1.767956043956044,143.6643956043956,238.3969465648855,-134.83969465648855,1.9465648854961832,923.6697247706422,-109.1743119266055,-210.7339449541284,,
1760462337.8975415,291,-0.7114945054945055,1.688901098901099,156.59347252747253,240.35114503816797,-117.25190839694656,1.9465648854961832,982.3853211009174,-179.63302752293578,-281.1926605504587,,
1760462337.918779,292,-0.6036923076923078,1.7032747252747251,152.97131868131868,240.35114503816797,-123.1145038167939,1.9465648854961832,1041.1009174311926,-179.63302752293578,-234.2201834862385,,
1760462337.9294426,293,-0.4671428571428571,1.7320219780219783,156.65096703296703,238.3969465648855,-119.206106870229,1.9465648854961832,1099.8165137614678,-156.14678899082568,-234.2201834862385,,
1760462337.950816,294,-0.4958901098901099,1.6385934065934065,149.23417582417582,242.3053435114504,-117.25190839694656,1.9465648854961832,1158.532110091743,-203.11926605504587,-210.7339449541284,,
1760462337.9826174,295,-0.6252527472527473,1.7104615384615385,149.2701098901099,230.5801526717557,-127.02290076335878,1.9465648854961832,1217.2477064220184,-156.14678899082568,-210.7339449541284,,
1760462337.993467,296,-0.5030769230769231,1.573912087912088,162.0626373626374,248.1679389312977,-128.9770992366412,1.9465648854961832,1275.9633027522937,-156.14678899082568,-281.1926605504587,,
1760462338.0147362,297,-0.6324395604395605,1.6745274725274726,147.33685714285716,232.53435114503816,-130.93129770992363,1.9465648854961832,1334.678899082569,-156.14678899082568,-210.7339449541284,,
1760462338.0465152,298,-0.6468131868131869,1.6457802197802198,156.65815384615385,240.35114503816797,-127.02290076335878,1.9465648854961832,1393.394495412844,-156.14678899082568,-234.2201834862385,,
1760462338.0573606,299,-0.6180659340659341,1.688901098901099,149.2844835164835,232.53435114503816,-119.206106870229,1.9465648854961832,1452.1100917431193,-179.63302752293578,-234.2201834862385,,
1760462338.0787446,300,-0.5965054945054945,1.6601538461538463,153.01443956043957,246.21374045801528,-132.8854961832061,1.9465648854961832,1510.8256880733943,-179.63302752293578,-234.2201834862385,,
1760462338.0895429,301,-0.6755604395604397,1.7535824175824175,163.9168351648352,246.21374045801528,-123.1145038167939,1.9465648854961832,1569.5412844036698,-156.14678899082568,-234.2201834862385,,
1760462338.1108136,302,-0.5461978021978022,1.7895164835164834,149.14074725274725,244.25954198473283,-119.206106870229,1.9465648854961832,1628.2568807339449,-132.6605504587156,-210.7339449541284,,
1760462338.1425295,303,-0.6036923076923078,1.6817142857142855,162.09857142857146,236.44274809160305,-123.1145038167939,1.9465648854961832,1686.97247706422,-132.6605504587156,-257.70642201834863,,
1760462338.153253,304,-0.5677582417582419,1.5954725274725277,143.5494065934066,236.44274809160305,-128.9770992366412,1.9465648854961832,1745.6880733944952,-132.6605504587156,-210.7339449541284,,
1760462338.1745307,305,-0.6108791208791209,1.7463956043956046,162.2207472527473,228.6259541984733,-115.29770992366412,1.9465648854961832,1804.4036697247705,-179.63302752293578,-281.1926605504587,,
1760462338.2062664,306,-0.7186813186813188,1.6673406593406594,149.1551208791209,230.5801526717557,-125.06870229007632,1.9465648854961832,1863.1192660550455,-156.14678899082568,-234.2201834862385,,
1760462338.2170143,307,-0.5461978021978022,1.6385934065934065,154.68178021978022,246.21374045801528,-119.206106870229,1.9465648854961832,1921.834862385321,-179.63302752293578,-257.70642201834863,,
1760462338.2382884,308,-0.6683736263736263,1.7751428571428571,163.93839560439562,242.3053435114504,-128.9770992366412,1.9465648854961832,1980.5504587155965,-132.6605504587156,-257.70642201834863,,
1760462338.2489488,309,-0.6324395604395605,1.6960879120879122,151.03806593406594,236.44274809160305,-121.16030534351144,1.9465648854961832,2039.2660550458716,-179.63302752293578,-234.2201834862385,,
1760462338.2703152,310,-0.6108791208791209,1.6242197802197802,156.615032967033,236.44274809160305,-127.02290076335878,1.9465648854961832,2097.9816513761466,-156.14678899082568,-234.2201834862385,,
1760462338.301822,311,-0.4312087912087912,1.767956043956044,149.2701098901099,228.6259541984733,-127.02290076335878,1.9465648854961832,2156.697247706422,-109.1743119266055,-257.70642201834863,,
1760462338.312456,312,-0.6252527472527473,1.7320219780219783,160.14375824175823,242.3053435114504,-125.06870229007632,1.9465648854961832,2215.412844036697,-179.63302752293578,-234.2201834862385,,
1760462338.333784,313,-0.6468131868131869,1.7320219780219783,151.05243956043958,-246.24427480916032,-113.34351145038168,1.9465648854961832,2274.1284403669724,-179.63302752293578,-281.1926605504587,,
1760462338.344349,314,-0.5605714285714286,1.7607692307692309,154.7249010989011,234.4885496183206,-121.16030534351144,1.9465648854961832,2332.844036697248,-156.14678899082568,-234.2201834862385,,
1760462338.3653653,315,-0.6108791208791209,1.6817142857142855,151.074,234.4885496183206,-134.83969465648855,1.9465648854961832,2391.559633027523,-132.6605504587156,-281.1926605504587,,
1760462338.3972242,316,-0.6252527472527473,1.7463956043956046,160.35936263736264,224.7175572519084,-121.16030534351144,1.9465648854961832,2450.2752293577983,-132.6605504587156,-257.70642201834863,,
1760462338.4079487,317,-0.6324395604395605,1.767956043956044,152.9785054945055,234.4885496183206,-123.1145038167939,1.9465648854961832,2508.990825688073,-179.63302752293578,-257.70642201834863,,
1760462338.4290469,318,-0.459956043956044,1.724835164835165,152.84914285714285,234.4885496183206,-130.93129770992363,1.9465648854961832,2567.7064220183483,-179.63302752293578,-234.2201834862385,,
1760462338.4608705,319,-0.5174505494505495,1.6529670329670332,151.05243956043958,250.12213740458012,-130.93129770992363,1.9465648854961832,2626.422018348624,-132.6605504587156,-281.1926605504587,,
1760462338.4716127,320,-0.6108791208791209,1.724835164835165,145.47547252747253,244.25954198473283,-134.83969465648855,1.9465648854961832,2685.137614678899,-179.63302752293578,-281.1926605504587,,
1760462338.4929516,321,-0.5821318681318681,1.688901098901099,143.8225054945055,234.4885496183206,-128.9770992366412,1.9465648854961832,2743.853211009174,-132.6605504587156,-257.70642201834863,,
1760462338.5035825,322,-0.6252527472527473,1.6385934065934065,134.47964835164836,234.4885496183206,-138.74809160305344,1.9465648854961832,2802.568807339449,-156.14678899082568,-257.70642201834863,,
1760462338.5248177,323,-0.6324395604395605,1.7967032967032968,147.3584175824176,242.3053435114504,-123.1145038167939,1.9465648854961832,2861.2844036697247,-156.14678899082568,-257.70642201834863,,
1760462338.5459394,324,-0.5605714285714286,1.7967032967032968,145.54015384615386,246.21374045801528,-134.83969465648855,1.9465648854961832,2920.0,-132.6605504587156,-234.2201834862385,,
1760462338.5566905,325,-0.5821318681318681,1.6385934065934065,152.89226373626374,250.12213740458012,-117.25190839694656,1.9465648854961832,2978.7155963302757,-156.14678899082568,-281.1926605504587,,
1760462338.5780249,326,-0.5174505494505495,1.7104615384615385,147.39435164835166,240.35114503816797,-130.93129770992363,1.9465648854961832,-2975.0458715596333,-156.14678899082568,-304.6788990825688,,
1760462338.6099885,327,-0.6611868131868132,1.5954725274725277,160.23,232.53435114503816,-128.9770992366412,1.9465648854961832,-2916.330275229358,-156.14678899082568,-210.7339449541284,,
1760462338.6206198,328,-0.5461978021978022,1.6673406593406594,149.2198021978022,218.85496183206104,-128.9770992366412,1.9465648854961832,-2857.6146788990827,-179.63302752293578,-281.1926605504587,,
1760462338.6419249,329,-0.5893186813186814,1.6601538461538463,151.04525274725276,236.44274809160305,-130.93129770992363,1.9465648854961832,-2798.8990825688074,-156.14678899082568,-257.70642201834863,,
1760462338.652587,330,-0.5174505494505495,1.7320219780219783,143.6572087912088,244.25954198473283,-123.1145038167939,1.9465648854961832,-2740.183486238532,-132.6605504587156,-187.24770642201835,,
1760462338.673797,331,-0.5318241758241758,1.6529670329670332,143.63564835164834,250.12213740458012,-127.02290076335878,1.9465648854961832,-2681.467889908257,-179.63302752293578,-234.2201834862385,,
1760462338.7054777,332,1.300813186813187,0.0359340659340659,158.43329670329672,246.21374045801528,-128.9770992366412,1.9465648854961832,-2622.7522935779816,-156.14678899082568,-234.2201834862385,,
1760462338.7162066,333,-0.4527692307692308,1.6960879120879122,151.074,236.44274809160305,-123.1145038167939,1.9465648854961832,-2564.0366972477063,-179.63302752293578,-234.2201834862385,,
1760462338.737573,334,-0.6252527472527473,1.7320219780219783,162.1201318681319,228.6259541984733,-123.1145038167939,1.9465648854961832,-2505.321100917431,-179.63302752293578,-234.2201834862385,,
1760462338.769224,335,-0.539010989010989,1.7392087912087917,145.59764835164836,232.53435114503816,-123.1145038167939,1.9465648854961832,-2446.605504587156,-179.63302752293578,-257.70642201834863,,
1760462338.7798655,336,-0.654,1.617032967032967,154.68896703296704,224.7175572519084,-125.06870229007632,1.9465648854961832,-2387.8899082568805,-156.14678899082568,-281.1926605504587,,
1760462338.8011384,337,-0.5965054945054945,1.617032967032967,163.89527472527473,-248.19847328244276,-127.02290076335878,1.9465648854961832,-2329.1743119266057,-179.63302752293578,-257.70642201834863,,
1760462338.8119593,338,-0.5893186813186814,1.7535824175824175,154.74646153846157,236.44274809160305,-125.06870229007632,1.9465648854961832,-2270.4587155963304,-156.14678899082568,-257.70642201834863,,
1760462338.8335414,339,-0.6180659340659341,1.6817142857142855,158.382989010989,234.4885496183206,-127.02290076335878,1.9465648854961832,-2211.743119266055,-156.14678899082568,-257.70642201834863,,
1760462338.8655777,340,-0.5102637362637363,1.566725274725275,145.54015384615386,226.67175572519085,-127.02290076335878,1.9465648854961832,-2153.02752293578,-203.11926605504587,-257.70642201834863,,
1760462338.8763194,341,-0.6396263736263736,1.7895164835164834,169.45786813186814,248.1679389312977,-121.16030534351144,1.9465648854961832,-2094.3119266055046,-203.11926605504587,-257.70642201834863,,
1760462338.8973842,342,-0.6180659340659341,1.6242197802197802,132.67575824175825,236.44274809160305,-119.206106870229,1.9465648854961832,-2035.596330275229,-203.11926605504587,-234.2201834862385,,
1760462338.9290268,343,-0.5965054945054945,1.7392087912087917,169.4434945054945,-240.38167938931295,-130.93129770992363,1.9465648854961832,-1976.880733944954,-132.6605504587156,-210.7339449541284,,
1760462338.939851,344,-0.4312087912087912,1.7104615384615385,162.1201318681319,230.5801526717557,-125.06870229007632,1.9465648854961832,-1918.1651376146788,-179.63302752293578,-257.70642201834863,,
1760462338.9612408,345,-0.6252527472527473,1.7751428571428571,154.6674065934066,236.44274809160305,-128.9770992366412,1.9465648854961832,-1859.449541284404,-203.11926605504587,-281.1926605504587,,
1760462338.9720345,346,-0.6252527472527473,1.688901098901099,147.38716483516484,228.6259541984733,-132.8854961832061,1.9465648854961832,-1800.7339449541284,-132.6605504587156,-281.1926605504587,,
1760462338.9933507,347,1.3223736263736263,0.0071868131868131,150.99494505494508,240.35114503816797,-115.29770992366412,1.9465648854961832,-1742.0183486238532,-179.63302752293578,-281.1926605504587,,
1760462339.0247765,348,-0.574945054945055,1.609846153846154,158.41173626373626,238.3969465648855,-130.93129770992363,1.9465648854961832,-1683.302752293578,-132.6605504587156,-234.2201834862385,,
1760462339.0353222,349,-0.6036923076923078,1.688901098901099,158.46923076923076,248.1679389312977,-128.9770992366412,1.9465648854961832,-1624.5871559633026,-156.14678899082568,-234.2201834862385,,
1760462339.056465,350,-0.4958901098901099,1.609846153846154,156.59347252747253,232.53435114503816,-128.9770992366412,1.9465648854961832,-1565.8715596330276,-156.14678899082568,-257.70642201834863,,
1760462339.08801,351,-0.6108791208791209,1.724835164835165,156.57909890109892,242.3053435114504,-136.793893129771,1.9465648854961832,-1507.1559633027523,-132.6605504587156,-234.2201834862385,,
1760462339.098693,352,-0.6971208791208792,1.6745274725274726,147.34404395604398,218.85496183206104,-138.74809160305344,1.9465648854961832,-1448.440366972477,-156.14678899082568,-234.2201834862385,,
1760462339.1197894,353,-0.6324395604395605,1.767956043956044,158.41892307692308,234.4885496183206,-130.93129770992363,1.9465648854961832,-1389.7247706422015,-156.14678899082568,-210.7339449541284,,
1760462339.13037,354,-0.4527692307692308,1.6673406593406594,151.10993406593408,240.35114503816797,-121.16030534351144,1.9465648854961832,-1331.0091743119265,-179.63302752293578,-234.2201834862385,,
1760462339.1411724,355,-0.4887032967032967,1.688901098901099,158.45485714285715,248.1679389312977,-128.9770992366412,1.9465648854961832,-1272.2935779816514,-132.6605504587156,-234.2201834862385,,
1760462339.172745,356,-0.574945054945055,1.5523516483516484,150.98775824175826,240.35114503816797,-130.93129770992363,1.9465648854961832,-1213.577981651376,-156.14678899082568,-234.2201834862385,,
1760462339.1834064,357,-0.6971208791208792,1.6385934065934065,149.24136263736264,230.5801526717557,-128.9770992366412,1.9465648854961832,-1154.8623853211009,-156.14678899082568,-257.70642201834863,,
1760462339.204771,358,-0.5605714285714286,1.7967032967032968,167.61085714285716,220.8091603053435,-121.16030534351144,1.9465648854961832,-1096.1467889908256,-156.14678899082568,-234.2201834862385,,
1760462339.2364855,359,-0.5533846153846155,1.6673406593406594,147.30092307692308,234.4885496183206,-130.93129770992363,1.9465648854961832,-1037.4311926605503,-132.6605504587156,-210.7339449541284,,
1760462339.2471156,360,-0.7546153846153847,1.4876703296703295,147.37279120879123,246.21374045801528,-127.02290076335878,1.9465648854961832,-978.7155963302752,-132.6605504587156,-257.70642201834863,,
1760462339.2683902,361,-0.5677582417582419,1.6745274725274726,156.57909890109892,240.35114503816797,-130.93129770992363,1.9465648854961832,-920.0,-132.6605504587156,-257.70642201834863,,
1760462339.2790277,362,-0.5246373626373626,1.724835164835165,140.0494285714286,-248.19847328244276,-119.206106870229,1.9465648854961832,-861.2844036697247,-156.14678899082568,-234.2201834862385,,
1760462339.300234,363,-0.6036923076923078,1.767956043956044,154.74646153846157,230.5801526717557,-125.06870229007632,1.9465648854961832,-802.5688073394494,-156.14678899082568,-304.6788990825688,,
1760462339.3319683,364,-0.5461978021978022,1.724835164835165,143.70751648351649,224.7175572519084,-123.1145038167939,1.9465648854961832,-743.8532110091743,-203.11926605504587,-210.7339449541284,,
1760462339.3428433,365,-0.5030769230769231,1.6745274725274726,162.09857142857146,242.3053435114504,-125.06870229007632,1.9465648854961832,-685.1376146788991,-226.605504587156,-257.70642201834863,,
1760462339.3640718,366,-0.6036923076923078,1.609846153846154,138.17367032967033,240.35114503816797,-128.9770992366412,1.9465648854961832,-626.4220183486239,-132.6605504587156,-257.70642201834863,,
1760462339.39579,367,-0.6252527472527473,1.724835164835165,154.75364835164837,250.12213740458012,-121.16030534351144,1.9465648854961832,-567.7064220183486,-156.14678899082568,-187.24770642201835,,
1760462339.4065769,368,-0.7043076923076923,1.6673406593406594,147.33685714285716,234.4885496183206,-121.16030534351144,1.9465648854961832,-508.9908256880734,-179.63302752293578,-234.2201834862385,,
1760462339.427968,369,-0.6180659340659341,1.609846153846154,158.3758021978022,230.5801526717557,-125.06870229007632,1.9465648854961832,-450.2752293577981,-179.63302752293578,-210.7339449541284,,
1760462339.438891,370,-0.5893186813186814,1.6960879120879122,147.264989010989,232.53435114503816,-127.02290076335878,1.9465648854961832,-391.5596330275229,-156.14678899082568,-281.1926605504587,,
1760462339.4602003,371,-0.5533846153846155,1.7032747252747251,158.50516483516483,228.6259541984733,-123.1145038167939,1.9465648854961832,-332.8440366972477,-179.63302752293578,-234.2201834862385,,
1760462339.4919395,372,-0.5965054945054945,1.724835164835165,143.72189010989013,248.1679389312977,-130.93129770992363,1.9465648854961832,-274.1284403669725,-156.14678899082568,-234.2201834862385,,
1760462339.5025537,373,-0.6755604395604397,1.7104615384615385,156.5719120879121,236.44274809160305,-134.83969465648855,1.9465648854961832,-215.41284403669724,-179.63302752293578,-210.7339449541284,,
1760462339.5237634,374,-0.5102637362637363,1.6457802197802198,160.25156043956045,238.3969465648855,-128.9770992366412,1.9465648854961832,-156.69724770642202,-203.11926605504587,-257.70642201834863,,
1760462339.5344186,375,-0.5246373626373626,1.724835164835165,145.57608791208793,226.67175572519085,-130.93129770992363,1.9465648854961832,-97.9816513761468,-109.1743119266055,-257.70642201834863,,
1760462339.55587,376,-0.6108791208791209,1.7535824175824175,149.25573626373625,234.4885496183206,-123.1145038167939,1.9465648854961832,-39.26605504587156,-132.6605504587156,-234.2201834862385,,
1760462339.5876698,377,-0.5965054945054945,1.5882857142857143,156.56472527472528,232.53435114503816,-130.93129770992363,1.9465648854961832,19.449541284403672,-156.05504587155963,-257.70642201834863,,
1760462339.5983458,378,-0.654,1.688901098901099,152.8132087912088,240.35114503816797,-121.16030534351144,1.9465648854961832,78.1651376146789,-156.05504587155963,-187.24770642201835,,
1760462339.6196277,379,-0.4096483516483516,1.6529670329670332,163.9168351648352,250.12213740458012,-128.9770992366412,1.9465648854961832,136.88073394495413,-132.5688073394495,-281.1926605504587,,
1760462339.6514409,380,-0.5246373626373626,1.6817142857142855,156.65815384615385,250.12213740458012,-138.74809160305344,1.9465648854961832,195.59633027522932,-156.05504587155963,-257.70642201834863,,
1760462339.6620855,381,-0.7043076923076923,1.6529670329670332,158.35424175824176,246.21374045801528,-123.1145038167939,1.9465648854961832,254.3119266055046,-156.05504587155963,-234.2201834862385,,
1760462339.683465,382,-0.7043076923076923,1.7392087912087917,147.23624175824176,232.53435114503816,-123.1145038167939,1.9465648854961832,313.0275229357798,-132.5688073394495,-257.70642201834863,,
1760462339.7153633,383,-0.5174505494505495,1.7535824175824175,152.91382417582415,234.4885496183206,-123.1145038167939,1.9465648854961832,371.74311926605503,-179.54128440366972,-234.2201834862385,,
1760462339.7262275,384,-0.6252527472527473,1.6026593406593408,143.64283516483516,246.21374045801528,-125.06870229007632,1.9465648854961832,430.4587155963303,-203.0275229357798,-210.7339449541284,,
1760462339.7474253,385,-0.5893186813186814,1.8110769230769237,154.68178021978022,248.1679389312977,-127.02290076335878,1.9465648854961832,489.1743119266055,-179.54128440366972,-257.70642201834863,,
1760462339.758226,386,-0.8696043956043957,1.6601538461538463,165.77103296703297,240.35114503816797,-132.8854961832061,1.9465648854961832,547.8899082568807,-132.5688073394495,-234.2201834862385,,
1760462339.76929,387,-0.5174505494505495,1.6745274725274726,145.47547252747253,226.67175572519085,-127.02290076335878,1.9465648854961832,606.6055045871559,-132.5688073394495,-257.70642201834863,,
1760462339.8010883,388,-0.6180659340659341,1.7463956043956046,138.25991208791208,236.44274809160305,-123.1145038167939,1.9465648854961832,665.3211009174312,-156.05504587155963,-257.70642201834863,,
1760462339.811911,389,-0.459956043956044,1.6817142857142855,160.2946813186813,234.4885496183206,-127.02290076335878,1.9465648854961832,724.0366972477065,-179.54128440366972,-234.2201834862385,,
1760462339.8333662,390,-0.6108791208791209,1.7032747252747251,162.08419780219782,246.21374045801528,-125.06870229007632,1.9465648854961832,782.7522935779816,-156.05504587155963,-234.2201834862385,,
1760462339.84419,391,-0.5318241758241758,1.7320219780219783,158.45485714285715,250.12213740458012,-127.02290076335878,1.9465648854961832,841.4678899082569,-179.54128440366972,-234.2201834862385,,
1760462339.8654776,392,-0.4743296703296704,1.6960879120879122,152.94257142857143,234.4885496183206,-130.93129770992363,1.9465648854961832,900.183486238532,-203.0275229357798,-234.2201834862385,,
1760462339.8973136,393,-0.6899340659340659,1.688901098901099,167.6396043956044,228.6259541984733,-130.93129770992363,1.9465648854961832,958.8990825688072,-156.05504587155963,-257.70642201834863,,
1760462339.907992,394,-0.5821318681318681,1.7392087912087917,154.75364835164837,224.7175572519084,-132.8854961832061,1.9465648854961832,1017.6146788990826,-156.05504587155963,-234.2201834862385,,
1760462339.929136,395,-0.6971208791208792,1.7967032967032968,158.39736263736265,240.35114503816797,-119.206106870229,1.9465648854961832,1076.3302752293578,-156.05504587155963,-234.2201834862385,,
1760462339.9609678,396,-0.5677582417582419,1.7535824175824175,152.88507692307692,-246.24427480916032,-121.16030534351144,1.9465648854961832,1135.045871559633,-179.54128440366972,-234.2201834862385,,
1760462339.9717774,397,-0.4312087912087912,1.6529670329670332,145.59046153846154,238.3969465648855,-134.83969465648855,1.9465648854961832,1193.7614678899083,-179.54128440366972,-257.70642201834863,,
1760462339.9931326,398,-0.6036923076923078,1.7320219780219783,163.89527472527473,240.35114503816797,-125.06870229007632,1.9465648854961832,1252.4770642201836,-156.05504587155963,-234.2201834862385,,
1760462340.0038197,399,-0.6468131868131869,1.688901098901099,151.0668131868132,234.4885496183206,-130.93129770992363,1.9465648854961832,1311.1926605504586,-156.05504587155963,-210.7339449541284,,
1760462340.0250826,400,-0.539010989010989,1.5954725274725277,156.54316483516484,238.3969465648855,-125.06870229007632,1.9465648854961832,1369.908256880734,-156.05504587155963,-281.1926605504587,,
1760462340.056699,401,-0.4527692307692308,1.7823296703296705,141.83175824175825,230.5801526717557,-136.793893129771,1.9465648854961832,1428.6238532110092,-132.5688073394495,-281.1926605504587,,
1760462340.0673928,402,-0.6180659340659341,1.688901098901099,149.14074725274725,248.1679389312977,-125.06870229007632,1.9465648854961832,1487.3394495412845,-179.54128440366972,-234.2201834862385,,
1760462340.0885613,403,-0.6324395604395605,1.767956043956044,149.226989010989,246.21374045801528,-125.06870229007632,1.9465648854961832,1546.0550458715595,-132.5688073394495,-234.2201834862385,,
1760462340.0992095,404,-0.5893186813186814,1.688901098901099,156.53597802197802,236.44274809160305,-125.06870229007632,1.9465648854961832,1604.7706422018348,-179.54128440366972,-234.2201834862385,,
1760462340.120511,405,-0.5677582417582419,1.7895164835164834,169.43630769230768,236.44274809160305,-134.83969465648855,1.9465648854961832,1663.4862385321098,-156.05504587155963,-257.70642201834863,,
1760462340.1521895,406,-0.5318241758241758,1.7895164835164834,156.50004395604395,222.763358778626,-134.83969465648855,1.9465648854961832,1722.201834862385,-179.54128440366972,-257.70642201834863,,
1760462340.162802,407,-0.5677582417582419,1.5882857142857143,160.20125274725274,242.3053435114504,-125.06870229007632,1.9465648854961832,1780.9174311926604,-156.05504587155963,-234.2201834862385,,
1760462340.1840396,408,-0.574945054945055,1.6385934065934065,156.57909890109892,-248.19847328244276,-134.83969465648855,1.9465648854961832,1839.633027522936,-156.05504587155963,-304.6788990825688,,
1760462340.2158556,409,-0.5174505494505495,1.7176483516483516,145.51859340659342,238.3969465648855,-140.70229007633588,1.9465648854961832,1898.348623853211,-203.0275229357798,-257.70642201834863,,
1760462340.226749,410,-0.574945054945055,1.631406593406593,163.95995604395603,228.6259541984733,-123.1145038167939,1.9465648854961832,1957.0642201834864,-132.5688073394495,-210.7339449541284,,
1760462340.2478871,411,-0.5605714285714286,1.7176483516483516,152.85632967032967,232.53435114503816,-127.02290076335878,1.9465648854961832,2015.7798165137613,-179.54128440366972,-187.24770642201835,,
1760462340.2691042,412,-0.5965054945054945,1.7104615384615385,158.50516483516483,244.25954198473283,-128.9770992366412,1.9465648854961832,2074.4954128440368,-203.0275229357798,-210.7339449541284,,
1760462340.2797835,413,-0.5318241758241758,1.5810989010989014,132.647010989011,250.12213740458012,-121.16030534351144,1.9465648854961832,2133.211009174312,-156.05504587155963,-234.2201834862385,,
1760462340.3010051,414,-0.5965054945054945,1.7392087912087917,160.25874725274724,240.35114503816797,-140.70229007633588,1.9465648854961832,2191.926605504587,-179.54128440366972,-234.2201834862385,,
1760462340.3430707,415,-0.574945054945055,1.7751428571428571,152.94975824175825,242.3053435114504,-127.02290076335878,1.9465648854961832,2250.642201834862,-156.05504587155963,-234.2201834862385,,
1760462340.353726,416,-0.6180659340659341,1.7895164835164834,156.50004395604395,234.4885496183206,-128.9770992366412,1.9465648854961832,2309.3577981651374,-132.5688073394495,-210.7339449541284,,
1760462340.374972,417,-0.5461978021978022,1.6745274725274726,141.83894505494507,232.53435114503816,-138.74809160305344,1.9465648854961832,2368.0733944954127,-179.54128440366972,-257.70642201834863,,
1760462340.385642,418,-0.5102637362637363,1.6745274725274726,147.34404395604398,232.53435114503816,-132.8854961832061,1.9465648854961832,2426.788990825688,-132.5688073394495,-257.70642201834863,,
1760462340.4070327,419,-0.4887032967032967,1.6457802197802198,152.78446153846156,240.35114503816797,-123.1145038167939,1.9465648854961832,2485.5045871559632,-156.05504587155963,-257.70642201834863,,
1760462340.41769,420,-0.4815164835164835,1.7535824175824175,158.44767032967033,-246.24427480916032,-128.9770992366412,1.9465648854961832,2544.2201834862385,-156.05504587155963,-210.7339449541284,,
1760462340.4389997,421,-0.6971208791208792,1.6457802197802198,156.5216043956044,234.4885496183206,-121.16030534351144,1.9465648854961832,2602.935779816514,-203.0275229357798,-281.1926605504587,,
1760462340.4601576,422,-0.5821318681318681,1.631406593406593,152.83476923076924,234.4885496183206,-134.83969465648855,1.9465648854961832,2661.651376146789,-179.54128440366972,-234.2201834862385,,
1760462340.4709766,423,-0.6611868131868132,1.6529670329670332,152.8707032967033,218.85496183206104,-127.02290076335878,1.9465648854961832,2720.3669724770643,-156.05504587155963,-210.7339449541284,,
1760462340.502871,424,-0.6036923076923078,1.724835164835165,160.20125274725274,238.3969465648855,-130.93129770992363,1.9465648854961832,2779.082568807339,-179.54128440366972,-257.70642201834863,,
1760462340.5347736,425,-0.5821318681318681,1.631406593406593,151.10993406593408,250.12213740458012,-125.06870229007632,1.9465648854961832,2837.7981651376144,-203.0275229357798,-234.2201834862385,,
1760462340.54537,426,-0.5174505494505495,1.7823296703296705,152.90663736263735,242.3053435114504,-117.25190839694656,1.9465648854961832,2896.5137614678897,-132.5688073394495,-210.7339449541284,,
1760462340.5562108,427,-0.5102637362637363,1.688901098901099,154.83989010989012,234.4885496183206,-119.206106870229,1.9465648854961832,2955.229357798165,-132.5688073394495,-281.1926605504587,,
1760462340.5669937,428,-0.6468131868131869,1.6673406593406594,149.17668131868132,-246.24427480916032,-125.06870229007632,1.9465648854961832,-2998.532110091743,-179.54128440366972,-257.70642201834863,,
1760462340.5987737,429,-0.4168351648351648,1.7032747252747251,156.60065934065935,220.8091603053435,-127.02290076335878,1.9465648854961832,-2939.816513761468,-132.5688073394495,-187.24770642201835,,
1760462340.609507,430,-0.4743296703296704,1.5954725274725277,139.9919340659341,236.44274809160305,-123.1145038167939,1.9465648854961832,-2881.100917431193,-156.05504587155963,-234.2201834862385,,
1760462340.630636,431,-0.5174505494505495,1.6242197802197802,162.15606593406596,246.21374045801528,-127.02290076335878,1.9465648854961832,-2822.3853211009173,-179.54128440366972,-234.2201834862385,,
1760462340.6623068,432,-0.6611868131868132,1.724835164835165,154.70334065934068,236.44274809160305,-130.93129770992363,1.9465648854961832,-2763.6697247706425,-156.05504587155963,-234.2201834862385,,
1760462340.6730003,433,-0.6180659340659341,1.6817142857142855,147.38716483516484,250.12213740458012,-121.16030534351144,1.9465648854961832,-2704.954128440367,-179.54128440366972,-210.7339449541284,,
1760462340.6941707,434,-0.6324395604395605,1.8110769230769237,152.90663736263735,238.3969465648855,-130.93129770992363,1.9465648854961832,-2646.238532110092,-156.05504587155963,-257.70642201834863,,
1760462340.704872,435,-0.5893186813186814,1.7176483516483516,151.0093186813187,222.763358778626,-115.29770992366412,1.9465648854961832,-2587.5229357798166,-179.54128440366972,-234.2201834862385,,
1760462340.726178,436,1.2217582417582418,0.0071868131868131,162.03389010989014,242.3053435114504,-127.02290076335878,1.9465648854961832,-2528.8073394495414,-203.0275229357798,-257.70642201834863,,
1760462340.7576404,437,-0.6180659340659341,1.6960879120879122,147.37997802197802,248.1679389312977,-121.16030534351144,1.9465648854961832,-2470.091743119266,-156.05504587155963,-257.70642201834863,,
1760462340.7682483,438,-0.7474285714285716,1.6960879120879122,154.7608351648352,238.3969465648855,-121.16030534351144,1.9465648854961832,-2411.376146788991,-156.05504587155963,-234.2201834862385,,
1760462340.78927,439,-0.4815164835164835,1.688901098901099,158.4404835164835,236.44274809160305,-125.06870229007632,1.9465648854961832,-2352.6605504587155,-132.5688073394495,-234.2201834862385,,
1760462340.8209383,440,-0.5893186813186814,1.6673406593406594,141.83894505494507,236.44274809160305,-132.8854961832061,1.9465648854961832,-2293.9449541284403,-109.08256880733944,-187.24770642201835,,
1760462340.8314822,441,-0.6036923076923078,1.7392087912087917,147.3584175824176,232.53435114503816,-128.9770992366412,1.9465648854961832,-2235.229357798165,-132.5688073394495,-234.2201834862385,,
1760462340.852675,442,-0.5821318681318681,1.6529670329670332,158.4261098901099,244.25954198473283,-130.93129770992363,1.9465648854961832,-2176.5137614678897,-156.05504587155963,-257.70642201834863,,
1760462340.884181,443,-0.654,1.631406593406593,161.94046153846156,234.4885496183206,-123.1145038167939,1.9465648854961832,-2117.798165137615,-179.54128440366972,-210.7339449541284,,
1760462340.894857,444,-0.6180659340659341,1.767956043956044,145.57608791208793,242.3053435114504,-123.1145038167939,1.9465648854961832,-2059.08256880734,-179.54128440366972,-210.7339449541284,,
1760462340.9160583,445,-0.654,1.7032747252747251,171.24738461538462,246.21374045801528,-109.4351145038168,1.9465648854961832,-2000.366972477064,-156.05504587155963,-257.70642201834863,,
1760462340.9267645,446,-0.7402417582417582,1.5810989010989014,152.72696703296702,226.67175572519085,-132.8854961832061,1.9465648854961832,-1941.651376146789,-109.08256880733944,-281.1926605504587,,
1760462340.9480712,447,1.228945054945055,0.0071868131868131,160.23,228.6259541984733,-125.06870229007632,1.9465648854961832,-1882.9357798165136,-156.05504587155963,-257.70642201834863,,
1760462340.9588697,448,-0.5821318681318681,1.617032967032967,156.58628571428574,234.4885496183206,-125.06870229007632,1.9465648854961832,-1824.2201834862385,-179.54128440366972,-210.7339449541284,,
1760462340.9800274,449,-0.6252527472527473,1.6960879120879122,160.22281318681317,236.44274809160305,-115.29770992366412,1.9465648854961832,-1765.5045871559632,-156.05504587155963,-210.7339449541284,,
1760462341.0118554,450,-0.574945054945055,1.6817142857142855,127.13472527472528,236.44274809160305,-111.38931297709924,1.9465648854961832,-1706.788990825688,-156.05504587155963,-257.70642201834863,,
1760462341.0226152,451,-0.6683736263736263,1.7463956043956046,158.36142857142858,240.35114503816797,-128.9770992366412,1.9465648854961832,-1648.073394495413,-179.54128440366972,-234.2201834862385,,
1760462341.0441506,452,-0.5821318681318681,1.5882857142857143,152.84195604395606,-244.29007633587787,-123.1145038167939,1.9465648854961832,-1589.3577981651376,-156.05504587155963,-281.1926605504587,,
1760462341.0549152,453,-0.5318241758241758,1.7823296703296705,149.1623076923077,242.3053435114504,-123.1145038167939,1.9465648854961832,-1530.6422018348624,-203.0275229357798,-210.7339449541284,,
1760462341.0761988,454,-0.5965054945054945,1.6457802197802198,162.26386813186815,230.5801526717557,-113.34351145038168,1.9465648854961832,-1471.926605504587,-156.05504587155963,-210.7339449541284,,
1760462341.1079326,455,-0.5318241758241758,1.7032747252747251,152.921010989011,224.7175572519084,-128.9770992366412,1.9465648854961832,-1413.2110091743118,-203.0275229357798,-234.2201834862385,,
1760462341.118548,456,-0.5605714285714286,1.7607692307692309,158.40454945054947,228.6259541984733,-117.25190839694656,1.9465648854961832,-1354.4954128440368,-203.0275229357798,-234.2201834862385,,
1760462341.1396792,457,-0.6971208791208792,1.6242197802197802,169.46505494505493,236.44274809160305,-119.206106870229,1.9465648854961832,-1295.7798165137615,-203.0275229357798,-257.70642201834863,,
1760462341.1713583,458,-0.5246373626373626,1.7104615384615385,152.8778901098901,238.3969465648855,-125.06870229007632,1.9465648854961832,-1237.0642201834862,-156.05504587155963,-210.7339449541284,,
1760462341.182059,459,-0.6252527472527473,1.631406593406593,156.64378021978024,238.3969465648855,-127.02290076335878,1.9465648854961832,-1178.348623853211,-179.54128440366972,-281.1926605504587,,
1760462341.2033048,460,-0.7043076923076923,1.6529670329670332,154.768021978022,232.53435114503816,-134.83969465648855,1.9465648854961832,-1119.6330275229357,-132.5688073394495,-234.2201834862385,,
1760462341.213915,461,-0.6108791208791209,1.7535824175824175,152.88507692307692,238.3969465648855,-123.1145038167939,1.9465648854961832,-1060.9174311926604,-132.5688073394495,-234.2201834862385,,
1760462341.2349875,462,-0.654,1.7176483516483516,154.70334065934068,236.44274809160305,-128.9770992366412,1.9465648854961832,-1002.2018348623852,-179.54128440366972,-210.7339449541284,,
1760462341.266517,463,-0.6611868131868132,1.609846153846154,151.03087912087912,248.1679389312977,-123.1145038167939,1.9465648854961832,-943.48623853211,-132.5688073394495,-304.6788990825688,,
1760462341.2773094,464,-0.4958901098901099,1.6457802197802198,160.20843956043956,240.35114503816797,-119.206106870229,1.9465648854961832,-884.7706422018348,-156.05504587155963,-257.70642201834863,,
1760462341.2984087,465,-0.5533846153846155,1.7320219780219783,156.59347252747253,240.35114503816797,-125.06870229007632,1.9465648854961832,-826.0550458715595,-109.08256880733944,-304.6788990825688,,
1760462341.329955,466,-0.6971208791208792,1.6817142857142855,156.54316483516484,238.3969465648855,-125.06870229007632,1.9465648854961832,-767.3394495412845,-179.54128440366972,-257.70642201834863,,
1760462341.340552,467,-0.539010989010989,1.6673406593406594,147.39435164835166,224.7175572519084,-121.16030534351144,1.9465648854961832,-708.6238532110092,-179.54128440366972,-234.2201834862385,,
1760462341.3618376,468,-0.4743296703296704,1.7463956043956046,154.80395604395605,228.6259541984733,-111.38931297709924,1.9465648854961832,-649.9082568807339,-156.05504587155963,-210.7339449541284,,
1760462341.3724356,469,-0.6252527472527473,1.537978021978022,152.9353846153846,238.3969465648855,-128.9770992366412,1.9465648854961832,-591.1926605504588,-156.05504587155963,-234.2201834862385,,
1760462341.3939652,470,-0.6683736263736263,1.6385934065934065,163.9312087912088,240.35114503816797,-105.52671755725191,1.9465648854961832,-532.4770642201835,-179.54128440366972,-281.1926605504587,,
1760462341.4257348,471,-0.7114945054945055,1.6745274725274726,165.73509890109892,244.25954198473283,-125.06870229007632,1.9465648854961832,-473.76146788990826,-132.5688073394495,-257.70642201834863,,
1760462341.436344,472,-0.4383956043956044,1.767956043956044,147.38716483516484,232.53435114503816,-121.16030534351144,1.9465648854961832,-415.045871559633,-156.05504587155963,-234.2201834862385,,
1760462341.4574616,473,-0.574945054945055,1.6242197802197802,158.44767032967033,230.5801526717557,-127.02290076335878,1.9465648854961832,-356.33027522935777,-203.0275229357798,-234.2201834862385,,
1760462341.4683082,474,-0.6468131868131869,1.6529670329670332,160.35936263736264,234.4885496183206,-125.06870229007632,1.9465648854961832,-297.6146788990825,-132.5688073394495,-234.2201834862385,,
1760462341.4896278,475,-0.5605714285714286,1.7032747252747251,154.73927472527475,238.3969465648855,-115.29770992366412,1.9465648854961832,-238.89908256880733,-156.05504587155963,-257.70642201834863,,
1760462341.531945,476,-0.5030769230769231,1.7967032967032968,156.47848351648352,240.35114503816797,-132.8854961832061,1.9465648854961832,-180.1834862385321,-156.05504587155963,-234.2201834862385,,
1760462341.5427778,477,-0.5461978021978022,1.7320219780219783,154.67459340659343,234.4885496183206,-121.16030534351144,1.9465648854961832,-121.46788990825688,-226.5137614678899,-210.7339449541284,,
1760462341.563908,478,-0.5965054945054945,1.631406593406593,154.63865934065936,238.3969465648855,-128.9770992366412,1.9465648854961832,-62.75229357798165,-203.0275229357798,-234.2201834862385,,
1760462341.5955634,479,-0.6324395604395605,1.617032967032967,143.62846153846155,224.7175572519084,-125.06870229007632,1.9465648854961832,-4.036697247706423,-179.54128440366972,-257.70642201834863,,
1760462341.6062331,480,-0.654,1.7535824175824175,162.16325274725278,240.35114503816797,-125.06870229007632,1.9465648854961832,54.67889908256881,-202.93577981651376,-234.2201834862385,,
1760462341.6169133,481,1.2720659340659342,0.0359340659340659,151.1674285714286,242.3053435114504,-119.206106870229,1.9465648854961832,113.39449541284404,-155.96330275229357,-257.70642201834863,,
1760462341.6277711,482,-0.574945054945055,1.6745274725274726,156.6869010989011,-246.24427480916032,-123.1145038167939,1.9465648854961832,172.11009174311926,-179.4495412844037,-234.2201834862385,,
1760462341.659781,483,-0.6396263736263736,1.6960879120879122,158.46923076923076,244.25954198473283,-117.25190839694656,1.9465648854961832,230.8256880733945,-132.47706422018348,-210.7339449541284,,
1760462341.670532,484,-0.6108791208791209,1.688901098901099,158.40454945054947,232.53435114503816,-128.9770992366412,1.9465648854961832,289.5412844036697,-155.96330275229357,-234.2201834862385,,
1760462341.6917024,485,-0.654,1.6385934065934065,152.8635164835165,218.85496183206104,-128.9770992366412,1.9465648854961832,348.25688073394497,-155.96330275229357,-187.24770642201835,,
1760462341.7233102,486,-0.6468131868131869,1.5882857142857143,151.16024175824177,242.3053435114504,-125.06870229007632,1.9465648854961832,406.9724770642201,-155.96330275229357,-257.70642201834863,,
1760462341.733942,487,1.200197802197802,0.0143736263736263,156.56472527472528,236.44274809160305,-130.93129770992363,1.9465648854961832,465.6880733944954,-132.47706422018348,-210.7339449541284,,
1760462341.755041,488,-0.6036923076923078,1.5523516483516484,147.31529670329672,248.1679389312977,-127.02290076335878,1.9465648854961832,524.4036697247706,-202.93577981651376,-257.70642201834863,,
1760462341.76559,489,-0.6396263736263736,1.7176483516483516,145.54015384615386,244.25954198473283,-127.02290076335878,1.9465648854961832,583.1192660550458,-132.47706422018348,-234.2201834862385,,
1760462341.786668,490,-0.6827472527472528,1.7032747252747251,154.62428571428572,232.53435114503816,-130.93129770992363,1.9465648854961832,641.8348623853211,-202.93577981651376,-257.70642201834863,,
1760462341.8182125,491,-0.539010989010989,1.6745274725274726,160.27312087912088,232.53435114503816,-132.8854961832061,1.9465648854961832,700.5504587155963,-155.96330275229357,-234.2201834862385,,
1760462341.8288484,492,-0.6611868131868132,1.7607692307692309,152.9641318681319,238.3969465648855,-125.06870229007632,1.9465648854961832,759.2660550458716,-179.4495412844037,-257.70642201834863,,
1760462341.8500762,493,-0.6396263736263736,1.6457802197802198,156.49285714285716,228.6259541984733,-121.16030534351144,1.9465648854961832,817.9816513761468,-132.47706422018348,-210.7339449541284,,
1760462341.8608131,494,-0.6324395604395605,1.6960879120879122,151.08118681318683,238.3969465648855,-128.9770992366412,1.9465648854961832,876.697247706422,-202.93577981651376,-257.70642201834863,,
1760462341.882109,495,-0.5965054945054945,1.6457802197802198,158.4261098901099,226.67175572519085,-127.02290076335878,1.9465648854961832,935.4128440366972,-179.4495412844037,-257.70642201834863,,
1760462341.913988,496,-0.5965054945054945,1.7104615384615385,147.27217582417583,240.35114503816797,-134.83969465648855,1.9465648854961832,994.1284403669724,-132.47706422018348,-304.6788990825688,,
1760462341.924698,497,-0.4743296703296704,1.7463956043956046,156.5287912087912,238.3969465648855,-127.02290076335878,1.9465648854961832,1052.8440366972477,-179.4495412844037,-257.70642201834863,,
1760462341.9458668,498,-0.4383956043956044,1.7751428571428571,147.37279120879123,236.44274809160305,-121.16030534351144,1.9465648854961832,1111.559633027523,-179.4495412844037,-210.7339449541284,,
1760462341.9565392,499,-0.7186813186813188,1.6673406593406594,141.8173846153846,242.3053435114504,-121.16030534351144,1.9465648854961832,1170.2752293577985,-155.96330275229357,-210.7339449541284,,
1760462341.9779034,500,-0.5821318681318681,1.566725274725275,160.2874945054945,236.44274809160305,-113.34351145038168,1.9465648854961832,1228.9908256880733,-132.47706422018348,-234.2201834862385,,
1760462342.0096378,501,-0.6611868131868132,1.6673406593406594,162.1273186813187,236.44274809160305,-119.206106870229,1.9465648854961832,1287.7064220183486,-179.4495412844037,-257.70642201834863,,
1760462342.020375,502,-0.5677582417582419,1.6026593406593408,158.497978021978,240.35114503816797,-128.9770992366412,1.9465648854961832,1346.422018348624,-179.4495412844037,-257.70642201834863,,
1760462342.0415528,503,-0.6899340659340659,1.617032967032967,160.20843956043956,214.94656488549617,-128.9770992366412,1.9465648854961832,1405.1376146788991,-132.47706422018348,-257.70642201834863,,
1760462342.0731957,504,-0.5605714285714286,1.6817142857142855,171.2976923076923,244.25954198473283,-121.16030534351144,1.9465648854961832,1463.8532110091744,-155.96330275229357,-210.7339449541284,,
1760462342.0839565,505,-0.6899340659340659,1.7823296703296705,149.12637362637363,230.5801526717557,-127.02290076335878,1.9465648854961832,1522.5688073394497,-179.4495412844037,-257.70642201834863,,
1760462342.0948682,506,-0.6252527472527473,1.724835164835165,154.79676923076926,-242.33587786259545,-130.93129770992363,1.9465648854961832,1581.2844036697247,-155.96330275229357,-234.2201834862385,,
1760462342.1264565,507,-0.5965054945054945,1.617032967032967,151.08118681318683,236.44274809160305,-130.93129770992363,1.9465648854961832,1639.9999999999998,-179.4495412844037,-210.7339449541284,,
1760462342.137232,508,-0.6324395604395605,1.5523516483516484,156.4641098901099,224.7175572519084,-119.206106870229,1.9465648854961832,1698.715596330275,-155.96330275229357,-234.2201834862385,,
1760462342.1583717,509,-0.6252527472527473,1.5810989010989014,165.7422857142857,224.7175572519084,-125.06870229007632,1.9465648854961832,1757.4311926605503,-179.4495412844037,-210.7339449541284,,
1760462342.169003,510,-0.6036923076923078,1.688901098901099,154.70334065934068,232.53435114503816,-121.16030534351144,1.9465648854961832,1816.1467889908256,-155.96330275229357,-234.2201834862385,,
1760462342.1903405,511,-0.5893186813186814,1.6817142857142855,156.50004395604395,-248.19847328244276,-123.1145038167939,1.9465648854961832,1874.8623853211009,-179.4495412844037,-257.70642201834863,,
1760462342.2222135,512,-0.5677582417582419,1.6385934065934065,152.9353846153846,240.35114503816797,-125.06870229007632,1.9465648854961832,1933.577981651376,-179.4495412844037,-234.2201834862385,,
1760462342.2328448,513,-0.574945054945055,1.609846153846154,156.6869010989011,228.6259541984733,-128.9770992366412,1.9465648854961832,1992.2935779816512,-179.4495412844037,-281.1926605504587,,
1760462342.2542863,514,-0.6252527472527473,1.6817142857142855,156.59347252747253,248.1679389312977,-130.93129770992363,1.9465648854961832,2051.0091743119265,-179.4495412844037,-257.70642201834863,,
1760462342.2859805,515,-0.6899340659340659,1.688901098901099,149.20542857142857,240.35114503816797,-125.06870229007632,1.9465648854961832,2109.7247706422017,-202.93577981651376,-210.7339449541284,,
1760462342.296549,516,-0.5605714285714286,1.7032747252747251,158.33268131868132,250.12213740458012,-132.8854961832061,1.9465648854961832,2168.440366972477,-155.96330275229357,-210.7339449541284,,
1760462342.3178933,517,-0.6036923076923078,1.6242197802197802,151.03806593406594,250.12213740458012,-127.02290076335878,1.9465648854961832,2227.1559633027523,-132.47706422018348,-281.1926605504587,,
1760462342.3285117,518,-0.5821318681318681,1.7823296703296705,156.5287912087912,242.3053435114504,-132.8854961832061,1.9465648854961832,2285.871559633028,-132.47706422018348,-257.70642201834863,,
1760462342.3498385,519,-0.5893186813186814,1.7392087912087917,145.52578021978024,228.6259541984733,-128.9770992366412,1.9465648854961832,2344.587155963303,-155.96330275229357,-257.70642201834863,,
1760462342.3814764,520,-0.5318241758241758,1.6529670329670332,150.93745054945057,230.5801526717557,-128.9770992366412,1.9465648854961832,2403.3027522935777,-155.96330275229357,-257.70642201834863,,
1760462342.3922908,521,-0.6683736263736263,1.6601538461538463,154.768021978022,238.3969465648855,-121.16030534351144,1.9465648854961832,2462.018348623853,-179.4495412844037,-304.6788990825688,,
1760462342.41335,522,-0.5965054945054945,1.7463956043956046,143.72907692307692,236.44274809160305,-121.16030534351144,1.9465648854961832,2520.733944954128,-179.4495412844037,-210.7339449541284,,
1760462342.4451933,523,-0.5965054945054945,1.5882857142857143,154.69615384615386,246.21374045801528,-115.29770992366412,1.9465648854961832,2579.4495412844035,-179.4495412844037,-234.2201834862385,,
1760462342.4559748,524,-0.5605714285714286,1.631406593406593,163.88090109890112,238.3969465648855,-128.9770992366412,1.9465648854961832,2638.1651376146788,-155.96330275229357,-234.2201834862385,,
1760462342.4773076,525,-0.574945054945055,1.767956043956044,154.768021978022,240.35114503816797,-123.1145038167939,1.9465648854961832,2696.880733944954,-202.93577981651376,-281.1926605504587,,
1760462342.487958,526,-0.5174505494505495,1.7535824175824175,138.1521098901099,232.53435114503816,-119.206106870229,1.9465648854961832,2755.5963302752293,-155.96330275229357,-257.70642201834863,,
1760462342.5092556,527,-0.5174505494505495,1.6817142857142855,151.10993406593408,236.44274809160305,-130.93129770992363,1.9465648854961832,2814.3119266055046,-179.4495412844037,-281.1926605504587,,
1760462342.5303483,528,-0.4743296703296704,1.80389010989011,158.43329670329672,248.1679389312977,-125.06870229007632,1.9465648854961832,2873.02752293578,-155.96330275229357,-257.70642201834863,,
1760462342.541049,529,-0.4527692307692308,1.7032747252747251,152.95694505494507,238.3969465648855,-125.06870229007632,1.9465648854961832,2931.743119266055,-155.96330275229357,-281.1926605504587,,
1760462342.5622268,530,-0.7186813186813188,1.6457802197802198,163.89527472527473,236.44274809160305,-115.29770992366412,1.9465648854961832,2990.4587155963304,-155.96330275229357,-234.2201834862385,,
1760462342.5940428,531,-0.6827472527472528,1.7392087912087917,149.24136263736264,228.6259541984733,-125.06870229007632,1.9465648854961832,-2963.302752293578,-179.4495412844037,-234.2201834862385,,
1760462342.6048765,532,-0.6324395604395605,1.6673406593406594,154.73927472527475,-248.19847328244276,-130.93129770992363,1.9465648854961832,-2904.587155963303,-155.96330275229357,-281.1926605504587,,
1760462342.626219,533,-0.6180659340659341,1.7463956043956046,162.11294505494507,222.763358778626,-117.25190839694656,1.9465648854961832,-2845.871559633028,-155.96330275229357,-234.2201834862385,,
1760462342.63695,534,-0.6396263736263736,1.80389010989011,145.48984615384617,244.25954198473283,-128.9770992366412,1.9465648854961832,-2787.1559633027523,-179.4495412844037,-257.70642201834863,,
1760462342.6581588,535,-0.7043076923076923,1.8326373626373629,163.95995604395603,244.25954198473283,-125.06870229007632,1.9465648854961832,-2728.440366972477,-108.9908256880734,-234.2201834862385,,
1760462342.6899347,536,-0.6396263736263736,1.8254505494505493,152.806021978022,248.1679389312977,-128.9770992366412,1.9465648854961832,-2669.7247706422017,-155.96330275229357,-234.2201834862385,,
1760462342.7006092,537,-0.5174505494505495,1.7320219780219783,158.43329670329672,244.25954198473283,-119.206106870229,1.9465648854961832,-2611.0091743119265,-155.96330275229357,-234.2201834862385,,
1760462342.7219956,538,-0.3952747252747253,1.724835164835165,149.226989010989,224.7175572519084,-130.93129770992363,1.9465648854961832,-2552.293577981651,-202.93577981651376,-281.1926605504587,,
1760462342.7537503,539,-0.6252527472527473,1.7463956043956046,143.7003296703297,246.21374045801528,-134.83969465648855,1.9465648854961832,-2493.5779816513764,-155.96330275229357,-257.70642201834863,,
1760462342.764423,540,-0.5677582417582419,1.7320219780219783,156.53597802197802,234.4885496183206,-128.9770992366412,1.9465648854961832,-2434.862385321101,-155.96330275229357,-234.2201834862385,,
1760462342.7855313,541,-0.6971208791208792,1.6673406593406594,151.0668131868132,240.35114503816797,-119.206106870229,1.9465648854961832,-2376.146788990826,-155.96330275229357,-257.70642201834863,,
1760462342.796194,542,-0.5605714285714286,1.6601538461538463,151.0165054945055,242.3053435114504,-125.06870229007632,1.9465648854961832,-2317.4311926605506,-155.96330275229357,-257.70642201834863,,
1760462342.8175416,543,-0.5102637362637363,1.6817142857142855,152.90663736263735,234.4885496183206,-128.9770992366412,1.9465648854961832,-2258.7155963302757,-132.47706422018348,-234.2201834862385,,
1760462342.849231,544,-0.6108791208791209,1.8182637362637364,152.89226373626374,238.3969465648855,-123.1145038167939,1.9465648854961832,-2200.0,-179.4495412844037,-257.70642201834863,,
1760462342.8600898,545,-0.5821318681318681,1.767956043956044,152.77727472527474,226.67175572519085,-125.06870229007632,1.9465648854961832,-2141.2844036697247,-132.47706422018348,-234.2201834862385,,
1760462342.8812995,546,-0.5461978021978022,1.6385934065934065,149.24136263736264,240.35114503816797,-123.1145038167939,1.9465648854961832,-2082.568807339449,-179.4495412844037,-234.2201834862385,,
1760462342.9129455,547,-0.5030769230769231,1.6529670329670332,138.19523076923076,244.25954198473283,-119.206106870229,1.9465648854961832,-2023.8532110091744,-179.4495412844037,-257.70642201834863,,
1760462342.9236944,548,-0.5102637362637363,1.7320219780219783,150.97338461538462,240.35114503816797,-128.9770992366412,1.9465648854961832,-1965.1376146788991,-155.96330275229357,-234.2201834862385,,
1760462342.944956,549,-0.5821318681318681,1.5523516483516484,154.68178021978022,232.53435114503816,-125.06870229007632,1.9465648854961832,-1906.422018348624,-202.93577981651376,-281.1926605504587,,
1760462342.955775,550,-0.6036923076923078,1.6601538461538463,162.02670329670332,228.6259541984733,-132.8854961832061,1.9465648854961832,-1847.7064220183488,-155.96330275229357,-257.70642201834863,,
1760462342.977028,551,-0.539010989010989,1.724835164835165,162.1776263736264,230.5801526717557,-117.25190839694656,1.9465648854961832,-1788.9908256880733,-155.96330275229357,-210.7339449541284,,
1760462343.0088837,552,-0.6468131868131869,1.6529670329670332,158.31830769230768,228.6259541984733,-128.9770992366412,1.9465648854961832,-1730.2752293577985,-179.4495412844037,-187.24770642201835,,
1760462343.0195124,553,-0.5318241758241758,1.7392087912087917,151.09556043956044,244.25954198473283,-115.29770992366412,1.9465648854961832,-1671.559633027523,-202.93577981651376,-281.1926605504587,,
1760462343.04077,554,-0.5893186813186814,1.6673406593406594,154.75364835164837,240.35114503816797,-125.06870229007632,1.9465648854961832,-1612.8440366972477,-132.47706422018348,-210.7339449541284,,
1760462343.072476,555,-0.5461978021978022,1.688901098901099,163.90246153846155,244.25954198473283,-127.02290076335878,1.9465648854961832,-1554.1284403669724,-179.4495412844037,-234.2201834862385,,
1760462343.0831647,556,-0.6252527472527473,1.7463956043956046,156.49285714285716,238.3969465648855,-127.02290076335878,1.9465648854961832,-1495.4128440366972,-132.47706422018348,-234.2201834862385,,
1760462343.1043746,557,-0.574945054945055,1.7320219780219783,154.78958241758244,236.44274809160305,-123.1145038167939,1.9465648854961832,-1436.697247706422,-179.4495412844037,-257.70642201834863,,
1760462343.115005,558,-0.5533846153846155,1.688901098901099,169.46505494505493,240.35114503816797,-125.06870229007632,1.9465648854961832,-1377.9816513761468,-108.9908256880734,-281.1926605504587,,
1760462343.136402,559,-0.6396263736263736,1.6026593406593408,152.84195604395606,-248.19847328244276,-123.1145038167939,1.9465648854961832,-1319.2660550458716,-155.96330275229357,-234.2201834862385,,
1760462343.1681726,560,-0.6755604395604397,1.6673406593406594,151.10274725274726,234.4885496183206,-125.06870229007632,1.9465648854961832,-1260.5504587155965,-202.93577981651376,-257.70642201834863,,
1760462343.1788826,561,-0.574945054945055,1.6242197802197802,151.1243076923077,234.4885496183206,-128.9770992366412,1.9465648854961832,-1201.834862385321,-155.96330275229357,-234.2201834862385,,
1760462343.2002816,562,-0.4312087912087912,1.7463956043956046,143.8296923076923,232.53435114503816,-119.206106870229,1.9465648854961832,-1143.1192660550455,-179.4495412844037,-281.1926605504587,,
1760462343.2109883,563,-0.6324395604395605,1.724835164835165,160.2803076923077,240.35114503816797,-125.06870229007632,1.9465648854961832,-1084.403669724771,-132.47706422018348,-257.70642201834863,,
1760462343.2218533,564,-0.6180659340659341,1.6601538461538463,156.55753846153848,234.4885496183206,-125.06870229007632,1.9465648854961832,-1025.6880733944954,-155.96330275229357,-234.2201834862385,,
1760462343.2532852,565,-0.6252527472527473,1.7535824175824175,154.75364835164837,-248.19847328244276,-123.1145038167939,1.9465648854961832,-966.97247706422,-155.96330275229357,-234.2201834862385,,
1760462343.263838,566,-0.6468131868131869,1.6385934065934065,156.56472527472528,240.35114503816797,-123.1145038167939,1.9465648854961832,-908.2568807339449,-155.96330275229357,-257.70642201834863,,
1760462343.2849464,567,-0.5174505494505495,1.7463956043956046,154.73927472527475,240.35114503816797,-127.02290076335878,1.9465648854961832,-849.5412844036697,-155.96330275229357,-234.2201834862385,,
1760462343.3167174,568,-0.5461978021978022,1.7032747252747251,151.0668131868132,226.67175572519085,-128.9770992366412,1.9465648854961832,-790.8256880733945,-155.96330275229357,-257.70642201834863,,
1760462343.3275676,569,-0.5821318681318681,1.767956043956044,154.74646153846157,232.53435114503816,-130.93129770992363,1.9465648854961832,-732.1100917431193,-155.96330275229357,-257.70642201834863,,
1760462343.359243,570,-0.5821318681318681,1.688901098901099,151.074,244.25954198473283,-125.06870229007632,1.9465648854961832,-673.3944954128441,-132.47706422018348,-234.2201834862385,,
1760462343.36985,571,-0.5821318681318681,1.7032747252747251,156.47848351648352,-248.19847328244276,-128.9770992366412,1.9465648854961832,-614.6788990825688,-132.47706422018348,-281.1926605504587,,
1760462343.391071,572,-0.5893186813186814,1.7320219780219783,154.7249010989011,240.35114503816797,-125.06870229007632,1.9465648854961832,-555.9633027522935,-155.96330275229357,-257.70642201834863,,
1760462343.4017248,573,-0.6108791208791209,1.6745274725274726,141.93956043956044,234.4885496183206,-130.93129770992363,1.9465648854961832,-497.2477064220183,-155.96330275229357,-257.70642201834863,,
1760462343.423042,574,-0.5677582417582419,1.7104615384615385,149.25573626373625,224.7175572519084,-128.9770992366412,1.9465648854961832,-438.5321100917431,-132.47706422018348,-257.70642201834863,,
1760462343.4548287,575,1.2073846153846155,0.0215604395604395,143.72189010989013,246.21374045801528,-130.93129770992363,1.9465648854961832,-379.8165137614679,-155.96330275229357,-210.7339449541284,,
1760462343.4654732,576,-0.5821318681318681,1.7895164835164834,156.55035164835166,234.4885496183206,-121.16030534351144,1.9465648854961832,-321.10091743119267,-155.96330275229357,-234.2201834862385,,
1760462343.486784,577,-0.6755604395604397,1.6745274725274726,158.40454945054947,-246.24427480916032,-125.06870229007632,1.9465648854961832,-262.3853211009174,-155.96330275229357,-210.7339449541284,,
1760462343.4974349,578,-0.4743296703296704,1.6960879120879122,154.85426373626376,248.1679389312977,-128.9770992366412,1.9465648854961832,-203.66972477064215,-179.4495412844037,-257.70642201834863,,
1760462343.5501285,579,-0.4527692307692308,1.7751428571428571,149.20542857142857,234.4885496183206,-121.16030534351144,1.9465648854961832,-144.95412844036696,-155.96330275229357,-281.1926605504587,,
1760462343.5608382,580,-0.5605714285714286,1.724835164835165,140.0566153846154,226.67175572519085,-128.9770992366412,1.9465648854961832,-86.23853211009175,-155.96330275229357,-234.2201834862385,,
1760462343.571486,581,-0.5318241758241758,1.6960879120879122,149.18386813186814,228.6259541984733,-130.93129770992363,1.9465648854961832,-27.522935779816518,-155.96330275229357,-304.6788990825688,,
1760462343.582373,582,-0.5893186813186814,1.7320219780219783,154.74646153846157,242.3053435114504,-130.93129770992363,1.9465648854961832,31.19266055045872,-155.87155963302752,-234.2201834862385,,
1760462343.6139724,583,-0.6324395604395605,1.6817142857142855,156.54316483516484,-236.4732824427481,-128.9770992366412,1.9465648854961832,89.90825688073394,-202.8440366972477,-210.7339449541284,,
1760462343.6246324,584,-0.6827472527472528,1.6817142857142855,154.7105274725275,232.53435114503816,-123.1145038167939,1.9465648854961832,148.62385321100916,-155.87155963302752,-234.2201834862385,,
1760462343.6458366,585,-0.654,1.724835164835165,158.43329670329672,236.44274809160305,-128.9770992366412,1.9465648854961832,207.3394495412844,-179.3577981651376,-210.7339449541284,,
1760462343.656469,586,-0.6468131868131869,1.6960879120879122,163.98151648351651,232.53435114503816,-127.02290076335878,1.9465648854961832,266.0550458715596,-179.3577981651376,-234.2201834862385,,
1760462343.677785,587,-0.6971208791208792,1.6745274725274726,152.88507692307692,226.67175572519085,-125.06870229007632,1.9465648854961832,324.77064220183485,-155.87155963302752,-304.6788990825688,,
1760462343.7094836,588,-0.6108791208791209,1.7535824175824175,152.89226373626374,240.35114503816797,-123.1145038167939,1.9465648854961832,383.4862385321101,-155.87155963302752,-234.2201834862385,,
1760462343.7201054,589,-0.7114945054945055,1.631406593406593,152.97131868131868,246.21374045801528,-119.206106870229,1.9465648854961832,442.2018348623853,-202.8440366972477,-234.2201834862385,,
1760462343.7411628,590,-0.574945054945055,1.7607692307692309,158.3686153846154,234.4885496183206,-130.93129770992363,1.9465648854961832,500.9174311926605,-132.38532110091742,-234.2201834862385,,
1760462343.7726336,591,-0.5965054945054945,1.5810989010989014,156.58628571428574,234.4885496183206,-130.93129770992363,1.9465648854961832,559.6330275229358,-179.3577981651376,-234.2201834862385,,
1760462343.7832525,592,-0.5821318681318681,1.724835164835165,160.25874725274724,224.7175572519084,-127.02290076335878,1.9465648854961832,618.3486238532109,-132.38532110091742,-257.70642201834863,,
1760462343.8043122,593,-0.6324395604395605,1.5595384615384615,156.70127472527474,242.3053435114504,-128.9770992366412,1.9465648854961832,677.0642201834862,-155.87155963302752,-257.70642201834863,,
1760462343.814903,594,-0.5318241758241758,1.6673406593406594,169.39318681318682,242.3053435114504,-128.9770992366412,1.9465648854961832,735.7798165137615,-155.87155963302752,-210.7339449541284,,
1760462343.836052,595,-0.5533846153846155,1.688901098901099,154.768021978022,242.3053435114504,-128.9770992366412,1.9465648854961832,794.4954128440367,-155.87155963302752,-210.7339449541284,,
1760462343.8674996,596,-0.4815164835164835,1.7032747252747251,165.7854065934066,244.25954198473283,-125.06870229007632,1.9465648854961832,853.2110091743119,-132.38532110091742,-234.2201834862385,,
1760462343.878214,597,-0.5965054945054945,1.6745274725274726,149.2198021978022,226.67175572519085,-125.06870229007632,1.9465648854961832,911.9266055045872,-155.87155963302752,-234.2201834862385,,
1760462343.899471,598,-0.5965054945054945,1.7463956043956046,154.73208791208793,216.90076335877865,-127.02290076335878,1.9465648854961832,970.6422018348624,-179.3577981651376,-234.2201834862385,,
1760462343.93135,599,-0.7258681318681319,1.7967032967032968,156.55753846153848,250.12213740458012,-128.9770992366412,1.9465648854961832,1029.3577981651376,-132.38532110091742,-257.70642201834863,,
1760462343.942039,600,-0.5318241758241758,1.7104615384615385,138.19523076923076,244.25954198473283,-121.16030534351144,1.9465648854961832,1088.073394495413,-155.87155963302752,-234.2201834862385,,
1760462343.9631708,601,-0.5533846153846155,1.6960879120879122,162.11294505494507,248.1679389312977,-121.16030534351144,1.9465648854961832,1146.7889908256882,-202.8440366972477,-163.76146788990826,,
1760462343.973942,602,-0.6036923076923078,1.7967032967032968,158.43329670329672,238.3969465648855,-127.02290076335878,1.9465648854961832,1205.5045871559632,-202.8440366972477,-234.2201834862385,,
1760462343.9953198,603,-0.6396263736263736,1.7032747252747251,156.54316483516484,234.4885496183206,-144.61068702290078,1.9465648854961832,1264.2201834862385,-179.3577981651376,-234.2201834862385,,
1760462344.016476,604,-0.5821318681318681,1.7176483516483516,143.69314285714285,236.44274809160305,-125.06870229007632,1.9465648854961832,1322.9357798165138,-179.3577981651376,-234.2201834862385,,
1760462344.027544,605,-0.6683736263736263,1.7032747252747251,151.19617582417584,232.53435114503816,-130.93129770992363,1.9465648854961832,1381.651376146789,-155.87155963302752,-234.2201834862385,,
1760462344.0489116,606,-0.6827472527472528,1.6601538461538463,163.84496703296705,-242.33587786259545,-132.8854961832061,1.9465648854961832,1440.3669724770643,-155.87155963302752,-234.2201834862385,,
1760462344.0595503,607,-0.6180659340659341,1.631406593406593,156.54316483516484,-244.29007633587787,-136.793893129771,1.9465648854961832,1499.0825688073394,-155.87155963302752,-234.2201834862385,,
1760462344.0807111,608,-0.6180659340659341,1.688901098901099,156.56472527472528,234.4885496183206,-123.1145038167939,1.9465648854961832,1557.798165137615,-155.87155963302752,-234.2201834862385,,
1760462344.111989,609,-0.5893186813186814,1.724835164835165,162.0626373626374,234.4885496183206,-130.93129770992363,1.9465648854961832,1616.5137614678897,-132.38532110091742,-234.2201834862385,,
