timestamp,packet_id,accel_x,accel_y,accel_z,gyro_x,gyro_y,gyro_z,mag_x,mag_y,mag_z,battery,temperature
1760218097.6065214,0,-189.28628571428573,82.7777142857143,-152.7054065934066,0.0,-124.29770992366412,26.435114503816795,-187.1559633027523,-1103.2110091743118,0.3669724770642202,0.0,
1760218097.70858,1,-202.20817582417584,75.41841758241759,-149.02575824175824,0.0,-119.412213740458,28.38931297709924,-210.6422018348624,-1103.2110091743118,0.3669724770642202,0.0,
1760218097.8096087,2,-198.4925934065934,71.73876923076924,-154.54523076923078,0.0,-114.52671755725191,30.34351145038168,-210.6422018348624,-1103.2110091743118,0.3669724770642202,0.0,
1760218097.9105482,3,-196.56652747252747,82.7777142857143,-139.82663736263737,0.0,-109.6412213740458,26.435114503816795,-210.6422018348624,-1126.697247706422,0.3669724770642202,0.0,
1760218098.0114064,4,-200.38991208791208,62.53964835164836,-154.54523076923078,0.0,-104.7557251908397,24.480916030534356,-163.6697247706422,-1103.2110091743118,0.3669724770642202,0.0,
1760218098.1121454,5,-192.9587472527473,71.73876923076924,-139.82663736263737,0.0,-99.87022900763358,26.435114503816795,-163.6697247706422,-1103.2110091743118,0.3669724770642202,0.0,
1760218098.2129598,6,-198.4422857142857,77.25824175824177,-141.66646153846156,0.0,-94.98473282442748,28.38931297709924,-187.1559633027523,-1079.7247706422015,0.3669724770642202,0.0,
1760218098.3137417,7,-196.71745054945052,79.09806593406594,-152.7054065934066,0.0,-90.09923664122137,28.38931297709924,-234.12844036697248,-1079.7247706422015,0.3669724770642202,0.0,
1760218098.4145696,8,-198.56446153846156,69.89894505494506,-147.18593406593408,0.0,-85.21374045801527,30.34351145038168,-210.6422018348624,-1056.2385321100917,0.3669724770642202,0.0,
1760218098.5154057,9,-198.55727472527477,66.2192967032967,-145.34610989010991,0.0,-80.32824427480917,28.38931297709924,-187.1559633027523,-1103.2110091743118,0.3669724770642202,0.0,
1760218098.6161876,10,-196.59527472527472,69.89894505494506,-137.98681318681318,0.0,-75.44274809160305,28.38931297709924,-210.6422018348624,-1032.7522935779816,0.3669724770642202,0.0,
1760218098.7170458,11,-194.85606593406595,75.41841758241759,-147.18593406593408,0.0,-70.55725190839695,28.38931297709924,-210.6422018348624,-1103.2110091743118,0.3669724770642202,0.0,
1760218098.8178344,12,-196.6168351648352,75.41841758241759,-137.98681318681318,0.0,-65.67175572519083,28.38931297709924,-140.1834862385321,-1103.2110091743118,0.3669724770642202,0.0,
1760218098.918724,13,-194.892,77.25824175824177,-149.02575824175824,0.0,-60.786259541984734,26.435114503816795,-187.1559633027523,-1056.2385321100917,0.3669724770642202,0.0,
1760218099.0195978,14,-207.67734065934067,69.89894505494506,-150.86558241758243,0.0,-55.90076335877863,28.38931297709924,-187.1559633027523,-1150.1834862385322,0.3669724770642202,0.0,
1760218099.1204815,15,-200.37553846153847,71.73876923076924,-145.34610989010991,0.0,-51.01526717557252,28.38931297709924,-210.6422018348624,-1126.697247706422,0.3669724770642202,0.0,
1760218099.221187,16,-194.76263736263735,69.89894505494506,-145.34610989010991,0.0,-46.12977099236641,30.34351145038168,-187.1559633027523,-1103.2110091743118,0.3669724770642202,0.0,
1760218099.3220656,17,-192.95156043956047,75.41841758241759,-141.66646153846156,0.0,-41.2442748091603,26.435114503816795,-187.1559633027523,-1103.2110091743118,0.3669724770642202,0.0,
1760218099.4228935,18,-209.4884175824176,71.73876923076924,-145.34610989010991,0.0,-36.3587786259542,30.34351145038168,-163.6697247706422,-1079.7247706422015,0.3669724770642202,0.0,
1760218099.5238338,19,-189.2216043956044,73.57859340659341,-143.50628571428572,0.0,-31.47328244274809,30.34351145038168,-116.69724770642202,-1056.2385321100917,0.3669724770642202,0.0,
1760218099.6246502,20,-200.3970989010989,66.2192967032967,-149.02575824175824,0.0,-26.587786259541986,28.38931297709924,-116.69724770642202,-1103.2110091743118,0.3669724770642202,0.0,
1760218099.725499,21,-202.20098901098905,60.69982417582418,-147.18593406593408,0.0,-21.70229007633588,28.38931297709924,-163.6697247706422,-1079.7247706422015,0.3669724770642202,0.0,
1760218099.826247,22,-194.79138461538463,77.25824175824177,-139.82663736263737,0.0,-16.81679389312977,26.435114503816795,-163.6697247706422,-1079.7247706422015,0.3669724770642202,0.0,
1760218099.9270885,23,-211.34980219780223,82.7777142857143,-156.38505494505495,0.0,-11.931297709923664,28.38931297709924,-234.12844036697248,-1079.7247706422015,0.3669724770642202,0.0,
1760218100.027902,24,-205.9021978021978,73.57859340659341,-137.98681318681318,0.0,-7.0458015267175576,26.435114503816795,-163.6697247706422,-1150.1834862385322,0.3669724770642202,0.0,
1760218100.12876,25,-200.2964835164835,82.7777142857143,-152.7054065934066,0.0,-2.1603053435114505,28.38931297709924,-187.1559633027523,-1103.2110091743118,0.3669724770642202,0.0,
1760218100.2295804,26,-204.08393406593407,68.05912087912088,-139.82663736263737,0.0,2.7251908396946565,30.35114503816794,-140.1834862385321,-1032.7522935779816,0.3669724770642202,0.0,
1760218100.3303387,27,-205.8518901098901,77.25824175824177,-141.66646153846156,0.0,7.6106870229007635,22.53435114503817,-210.6422018348624,-1103.2110091743118,0.3669724770642202,0.0,
1760218100.4311268,28,-200.27492307692307,68.05912087912088,-150.86558241758243,0.0,12.49618320610687,26.44274809160305,-140.1834862385321,-1150.1834862385322,0.3669724770642202,0.0,
1760218100.531998,29,-191.09736263736264,77.25824175824177,-149.02575824175824,0.0,17.38167938931298,30.35114503816794,-187.1559633027523,-1079.7247706422015,0.3669724770642202,0.0,
1760218100.6327891,30,-191.1764175824176,68.05912087912088,-154.54523076923078,0.0,22.267175572519083,28.396946564885496,-116.69724770642202,-1079.7247706422015,0.3669724770642202,0.0,
1760218100.7336824,31,0.0,-209.52435164835163,80.93789010989012,-158.29007633587787,0.0,27.15267175572519,317.79816513761466,-210.6422018348624,-1079.7247706422015,0.0,
1760218100.8345337,32,-0.5965054945054945,1.6960879120879122,-198.5285274725275,74.2442748091603,-150.4732824427481,0.0,385.045871559633,364.7706422018349,-210.6422018348624,0.0,
1760218100.9354436,33,-0.6252527472527473,1.6529670329670332,-192.94437362637365,78.1526717557252,-144.61068702290078,0.0,443.76146788990826,364.7706422018349,-187.1559633027523,0.0,
1760218101.03629,34,-0.6180659340659341,1.6242197802197802,-198.35604395604395,78.1526717557252,-154.38167938931298,0.0,502.4770642201835,317.79816513761466,-187.1559633027523,0.0,
1760218101.1372037,35,-0.5246373626373626,1.8254505494505493,-204.0192527472528,72.29007633587786,-146.5648854961832,0.0,561.1926605504588,341.2844036697248,-210.6422018348624,0.0,
1760218101.2380054,36,-0.4958901098901099,1.5523516483516484,-185.64975824175824,82.06106870229007,-154.38167938931298,0.0,619.9082568807339,341.2844036697248,-187.1559633027523,0.0,
1760218101.3388212,37,-0.5677582417582419,1.6242197802197802,-191.1404835164835,80.10687022900764,-154.38167938931298,0.0,678.6238532110092,317.79816513761466,-210.6422018348624,0.0,
1760218101.439693,38,-0.5677582417582419,1.5810989010989014,-198.4279120879121,78.1526717557252,-150.4732824427481,0.0,737.3394495412845,341.2844036697248,-163.6697247706422,0.0,
1760218101.5404909,39,-0.4743296703296704,1.724835164835165,-205.95250549450552,89.87786259541984,-150.4732824427481,0.0,796.0550458715596,341.2844036697248,-187.1559633027523,0.0,
1760218101.6413782,40,-0.5461978021978022,1.7032747252747251,-202.13630769230767,78.1526717557252,-148.51908396946564,0.0,854.7706422018349,317.79816513761466,-187.1559633027523,0.0,
1760218101.7421446,41,-0.574945054945055,1.617032967032967,-192.9874945054945,72.29007633587786,-152.42748091603053,0.0,913.4862385321102,364.7706422018349,-163.6697247706422,0.0,
1760218101.842983,42,-0.574945054945055,1.6673406593406594,-194.79138461538463,80.10687022900764,-156.33587786259542,0.0,972.2018348623852,341.2844036697248,-187.1559633027523,0.0,
1760218101.9438107,43,-0.5030769230769231,1.6242197802197802,-196.6312087912088,72.29007633587786,-154.38167938931298,0.0,1030.9174311926606,317.79816513761466,-187.1559633027523,0.0,
1760218102.0446465,44,-0.574945054945055,1.80389010989011,-194.94949450549453,78.1526717557252,-158.29007633587787,0.0,1089.633027522936,317.79816513761466,-140.1834862385321,0.0,
1760218102.145499,45,-0.5605714285714286,1.6817142857142855,-209.4812307692308,82.06106870229007,-142.65648854961833,0.0,1148.3486238532112,364.7706422018349,-163.6697247706422,0.0,
1760218102.2463694,46,-0.4096483516483516,1.6601538461538463,-196.6815164835165,72.29007633587786,-150.4732824427481,0.0,1207.0642201834862,317.79816513761466,-163.6697247706422,0.0,
1760218102.347191,47,-0.5461978021978022,1.6242197802197802,-189.37252747252748,82.06106870229007,-162.19847328244273,0.0,1265.7798165137615,341.2844036697248,-163.6697247706422,0.0,
1760218102.4480505,48,-0.5030769230769231,1.5954725274725277,-202.21536263736263,76.19847328244275,-154.38167938931298,0.0,1324.4954128440368,364.7706422018349,-210.6422018348624,0.0,
1760218102.5488603,49,-0.5605714285714286,1.6745274725274726,-196.6168351648352,85.96946564885496,-152.42748091603053,0.0,1383.211009174312,364.7706422018349,-163.6697247706422,0.0,
1760218102.6496518,50,-0.459956043956044,1.6529670329670332,-207.66296703296703,87.92366412213741,-154.38167938931298,0.0,1441.926605504587,364.7706422018349,-210.6422018348624,0.0,
1760218102.7524247,51,-0.574945054945055,1.631406593406593,-205.87345054945052,95.74045801526718,-154.38167938931298,0.0,1500.6422018348624,317.79816513761466,-187.1559633027523,0.0,
1760218102.8539517,52,-0.6396263736263736,1.7320219780219783,-205.7872087912088,78.1526717557252,-152.42748091603053,0.0,1559.3577981651376,341.2844036697248,-210.6422018348624,0.0,
1760218102.9548633,53,-0.5461978021978022,1.6960879120879122,-209.509978021978,84.01526717557252,-148.51908396946564,0.0,1618.073394495413,341.2844036697248,-163.6697247706422,0.0,
1760218103.0556717,54,-0.5030769230769231,1.617032967032967,-194.74107692307692,82.06106870229007,-154.38167938931298,0.0,1676.788990825688,364.7706422018349,-163.6697247706422,0.0,
1760218103.1567116,55,-0.5246373626373626,1.8182637362637364,-205.86626373626376,82.06106870229007,-138.74809160305344,0.0,1735.5045871559632,317.79816513761466,-210.6422018348624,0.0,
1760218103.2575393,56,-0.6468131868131869,1.617032967032967,-196.72463736263737,84.01526717557252,-156.33587786259542,0.0,1794.2201834862385,341.2844036697248,-116.69724770642202,0.0,
1760218103.3584197,57,-0.5533846153846155,1.6529670329670332,-205.82314285714287,82.06106870229007,-162.19847328244273,0.0,1852.9357798165136,341.2844036697248,-163.6697247706422,0.0,
1760218103.459316,58,-0.5605714285714286,1.7751428571428571,-215.09413186813188,87.92366412213741,-156.33587786259542,0.0,1911.6513761467888,341.2844036697248,-163.6697247706422,0.0,
1760218103.56014,59,-0.5821318681318681,1.80389010989011,-202.20817582417584,78.1526717557252,-144.61068702290078,0.0,1970.366972477064,341.2844036697248,-163.6697247706422,0.0,
1760218103.6615288,60,-0.5965054945054945,1.767956043956044,-205.81595604395605,70.33587786259542,-160.24427480916032,0.0,2029.0825688073396,341.2844036697248,-210.6422018348624,0.0,
1760218103.7623773,61,-0.4743296703296704,1.5595384615384615,-191.0254945054945,80.10687022900764,-146.5648854961832,0.0,2087.7981651376144,341.2844036697248,-187.1559633027523,0.0,
1760218103.8632684,62,-0.6036923076923078,1.7607692307692309,-193.00905494505497,82.06106870229007,-156.33587786259542,0.0,2146.5137614678897,364.7706422018349,-187.1559633027523,0.0,
1760218103.9639406,63,-0.574945054945055,1.6673406593406594,-198.47821978021975,87.92366412213741,-164.15267175572518,0.0,2205.229357798165,294.3119266055046,-210.6422018348624,0.0,
1760218104.0646956,64,-0.4455824175824175,1.688901098901099,-189.28628571428573,66.42748091603053,-148.51908396946564,0.0,2263.9449541284403,317.79816513761466,-234.12844036697248,0.0,
1760218104.1658497,65,-0.5677582417582419,1.5595384615384615,-185.5850769230769,82.06106870229007,-144.61068702290078,0.0,2322.6605504587155,341.2844036697248,-187.1559633027523,0.0,
1760218104.266687,66,-0.5102637362637363,1.6529670329670332,-207.67015384615385,93.78625954198472,-152.42748091603053,0.0,2381.376146788991,364.7706422018349,-140.1834862385321,0.0,
1760218104.367687,67,-0.539010989010989,1.6529670329670332,-194.79857142857145,76.19847328244275,-158.29007633587787,0.0,2440.091743119266,341.2844036697248,-140.1834862385321,0.0,
1760218104.4686842,68,-0.539010989010989,1.7967032967032968,-196.6958901098901,82.06106870229007,-154.38167938931298,0.0,2498.8073394495414,341.2844036697248,-234.12844036697248,0.0,
1760218104.5695295,69,-0.5461978021978022,1.6960879120879122,-189.3006593406593,76.19847328244275,-160.24427480916032,0.0,2557.5229357798166,341.2844036697248,-210.6422018348624,0.0,
1760218104.6703331,70,-0.539010989010989,1.6026593406593408,-196.6096483516484,85.96946564885496,-156.33587786259542,0.0,2616.238532110092,341.2844036697248,-210.6422018348624,0.0,
1760218104.7712138,71,-0.5821318681318681,1.6385934065934065,-191.11892307692307,76.19847328244275,-150.4732824427481,0.0,2674.9541284403667,341.2844036697248,-187.1559633027523,0.0,
1760218104.872017,72,-0.4455824175824175,1.6673406593406594,-192.9228131868132,82.06106870229007,-150.4732824427481,0.0,2733.669724770642,341.2844036697248,-210.6422018348624,0.0,
1760218104.9727037,73,-0.5461978021978022,1.6385934065934065,-196.6887032967033,80.10687022900764,-144.61068702290078,0.0,2792.3853211009173,364.7706422018349,-210.6422018348624,0.0,
1760218105.0737092,74,-0.4024615384615385,1.7392087912087917,-194.83450549450552,85.96946564885496,-146.5648854961832,0.0,2851.100917431193,341.2844036697248,-187.1559633027523,0.0,
1760218105.174564,75,-0.5246373626373626,1.609846153846154,-198.47821978021975,76.19847328244275,-160.24427480916032,0.0,2909.816513761468,388.25688073394497,-163.6697247706422,0.0,
1760218105.2753448,76,-0.5605714285714286,1.6529670329670332,-200.27492307692307,82.06106870229007,-152.42748091603053,0.0,2968.532110091743,317.79816513761466,-187.1559633027523,0.0,
1760218105.3761337,77,-0.4887032967032967,1.5810989010989014,-196.76057142857144,89.87786259541984,-150.4732824427481,0.0,-2985.229357798165,364.7706422018349,-187.1559633027523,0.0,
1760218105.4772866,78,-0.4958901098901099,1.6529670329670332,-198.45665934065931,78.1526717557252,-154.38167938931298,0.0,-2926.5137614678897,364.7706422018349,-163.6697247706422,0.0,
1760218105.578158,79,-0.5174505494505495,1.724835164835165,-191.1404835164835,84.01526717557252,-154.38167938931298,0.0,-2867.798165137615,341.2844036697248,-140.1834862385321,0.0,
1760218105.6790676,80,-0.5893186813186814,1.767956043956044,-202.09318681318683,76.19847328244275,-158.29007633587787,0.0,-2809.08256880734,364.7706422018349,-163.6697247706422,0.0,
1760218105.7798831,81,-0.5318241758241758,1.7320219780219783,-194.84887912087916,82.06106870229007,-148.51908396946564,0.0,-2750.3669724770643,317.79816513761466,-140.1834862385321,0.0,
1760218105.880707,82,-0.5461978021978022,1.6817142857142855,-203.94019780219784,91.83206106870227,-152.42748091603053,0.0,-2691.651376146789,341.2844036697248,-163.6697247706422,0.0,
1760218105.9815917,83,-0.5821318681318681,1.6817142857142855,-194.8776263736264,84.01526717557252,-158.29007633587787,0.0,-2632.935779816514,388.25688073394497,-210.6422018348624,0.0,
1760218106.082342,84,-0.4383956043956044,1.7895164835164834,-202.16505494505495,76.19847328244275,-148.51908396946564,0.0,-2574.2201834862385,341.2844036697248,-187.1559633027523,0.0,
1760218106.183112,85,-0.4455824175824175,1.724835164835165,-194.79138461538463,87.92366412213741,-154.38167938931298,0.0,-2515.5045871559632,341.2844036697248,-234.12844036697248,0.0,
1760218106.2838037,86,-0.4671428571428571,1.6745274725274726,-183.78837362637364,85.96946564885496,-152.42748091603053,0.0,-2456.788990825688,341.2844036697248,-187.1559633027523,0.0,
1760218106.3849838,87,-0.5318241758241758,1.724835164835165,-191.1332967032967,78.1526717557252,-146.5648854961832,0.0,-2398.0733944954127,364.7706422018349,-234.12844036697248,0.0,
1760218106.4860344,88,-0.5246373626373626,1.7032747252747251,-205.81595604395605,68.38167938931298,-158.29007633587787,0.0,-2339.3577981651374,364.7706422018349,-163.6697247706422,0.0,
1760218106.5868418,89,-0.5174505494505495,1.5954725274725277,-194.7195164835165,66.42748091603053,-154.38167938931298,0.0,-2280.642201834862,341.2844036697248,-163.6697247706422,0.0,
1760218106.6878366,90,-0.4958901098901099,1.7607692307692309,-198.51415384615385,84.01526717557252,-152.42748091603053,0.0,-2221.9266055045878,364.7706422018349,-140.1834862385321,0.0,
1760218106.788633,91,-0.5318241758241758,1.6242197802197802,-203.94019780219784,89.87786259541984,-152.42748091603053,0.0,-2163.211009174312,388.25688073394497,-210.6422018348624,0.0,
1760275702.8386755,0,167.6324175824176,-23.91771428571429,226.29837362637363,0.0,208.93129770992363,14.36641221374046,24.220183486238533,-1150.091743119266,0.3669724770642202,0.0,
1760275702.9405782,1,169.42193406593407,-36.79648351648352,224.45854945054947,0.0,213.81679389312976,16.3206106870229,47.70642201834863,-1126.605504587156,0.3669724770642202,0.0,
1760275703.0414348,2,167.6396043956044,-12.878769230769231,224.45854945054947,0.0,218.70229007633588,14.36641221374046,24.220183486238533,-1079.633027522936,0.3669724770642202,0.0,
1760275703.1423693,3,165.8285274725275,-11.038945054945057,229.978021978022,0.0,223.587786259542,18.27480916030534,24.220183486238533,-1150.091743119266,0.3669724770642202,0.0,
1760275703.2432833,4,176.7884175824176,-20.238065934065936,226.29837362637363,0.0,228.4732824427481,18.27480916030534,71.19266055045873,-1126.605504587156,0.3669724770642202,0.0,
1760275703.344062,5,163.9312087912088,-27.59736263736264,228.1381978021978,0.0,233.3587786259542,18.27480916030534,47.70642201834863,-1103.119266055046,0.3669724770642202,0.0,
1760275703.4448318,6,176.889032967033,-25.757538461538463,-233.65767032967037,0.0,238.24427480916032,20.229007633587788,24.220183486238533,-1150.091743119266,0.3669724770642202,0.0,
1760275703.5456457,7,162.13450549450553,-22.07789010989011,218.93907692307693,0.0,243.1297709923664,14.36641221374046,71.19266055045873,-1150.091743119266,0.3669724770642202,0.0,
1760275703.646459,8,163.84496703296705,-29.437186813186816,217.0992527472528,0.0,248.0152671755725,16.3206106870229,71.19266055045873,-1126.605504587156,0.3669724770642202,0.0,
1760275703.7472532,9,176.8243516483517,-27.59736263736264,224.45854945054947,0.0,-247.3740458015267,16.3206106870229,47.70642201834863,-1079.633027522936,0.3669724770642202,0.0,
1760275703.8479884,10,169.40037362637364,-38.636307692307696,228.1381978021978,0.0,-242.4885496183206,16.3206106870229,24.220183486238533,-1103.119266055046,0.3669724770642202,0.0,
1760275703.9488916,11,164.00307692307695,-31.277010989010996,226.29837362637363,0.0,-237.6030534351145,20.229007633587788,71.19266055045873,-1056.1467889908258,0.3669724770642202,0.0,
1760275704.049774,12,162.2351208791209,-33.116835164835166,231.81784615384615,0.0,-232.7175572519084,20.229007633587788,94.67889908256882,-1126.605504587156,0.3669724770642202,0.0,
1760275704.150538,13,152.90663736263735,-25.757538461538463,220.77890109890112,0.0,-227.8320610687023,18.27480916030534,0.7339449541284404,-1103.119266055046,0.3669724770642202,0.0,
1760275704.251403,14,160.30186813186813,-29.437186813186816,222.6187252747253,0.0,-222.94656488549617,18.27480916030534,47.70642201834863,-1103.119266055046,0.3669724770642202,0.0,
1760275704.3522508,15,182.31507692307696,-16.558417582417583,218.93907692307693,0.0,-218.06106870229007,14.36641221374046,-22.752293577981654,-1126.697247706422,0.3669724770642202,0.0,
1760275704.4530554,16,167.6324175824176,-25.757538461538463,228.1381978021978,0.0,-213.175572519084,16.3206106870229,24.220183486238533,-1173.577981651376,0.3669724770642202,0.0,
1760275704.5539496,17,173.15189010989013,-33.116835164835166,220.77890109890112,0.0,-208.29007633587787,16.3206106870229,47.70642201834863,-1126.605504587156,0.3669724770642202,0.0,
1760275704.6547313,18,165.77103296703297,-27.59736263736264,229.978021978022,0.0,-203.40458015267177,16.3206106870229,24.220183486238533,-1150.091743119266,0.3669724770642202,0.0,
1760275704.7554884,19,0.0071868131868131,165.8357142857143,-31.277010989010996,246.2290076335878,0.0,-198.51908396946564,196.14678899082568,47.70642201834863,-1150.091743119266,0.0,
1760275704.8562946,20,-0.4671428571428571,1.6960879120879122,163.9743296703297,-21.49618320610687,232.54961832061068,0.0,-2327.1559633027523,196.14678899082568,47.70642201834863,0.0,
1760275704.9571135,21,-0.5605714285714286,1.6960879120879122,165.7279120879121,-41.038167938931295,236.4580152671756,0.0,-2268.440366972477,219.63302752293575,24.220183486238533,0.0,
1760275705.057932,22,-0.6324395604395605,1.7535824175824175,173.09439560439563,-31.267175572519083,238.412213740458,0.0,-2209.7247706422017,243.11926605504587,47.70642201834863,0.0,
1760275705.1588042,23,-0.5174505494505495,1.6457802197802198,171.2976923076923,-25.404580152671755,232.54961832061068,0.0,-2151.0091743119265,243.11926605504587,24.220183486238533,0.0,
1760275705.2596762,24,-0.4527692307692308,1.7535824175824175,184.29145054945056,-37.12977099236641,242.3206106870229,0.0,-2092.293577981651,196.14678899082568,24.220183486238533,0.0,
1760275705.3605218,25,1.3870549450549452,0.0287472527472527,162.13450549450553,-25.404580152671755,240.3664122137405,0.0,-2033.577981651376,196.14678899082568,24.220183486238533,0.0,
1760275705.461521,26,-0.539010989010989,1.7104615384615385,173.17345054945056,-31.267175572519083,242.3206106870229,0.0,-1974.8623853211009,196.14678899082568,24.220183486238533,0.0,
1760275705.562404,27,-0.4671428571428571,1.7823296703296705,162.14169230769232,-25.404580152671755,240.3664122137405,0.0,-1916.1467889908256,219.63302752293575,0.7339449541284404,0.0,
1760275705.6632245,28,-0.4383956043956044,1.724835164835165,160.23,-21.49618320610687,240.3664122137405,0.0,-1857.4311926605503,219.63302752293575,47.70642201834863,0.0,
1760275705.7640238,29,-0.4024615384615385,1.6529670329670332,158.382989010989,-33.221374045801525,246.2290076335878,0.0,-1798.715596330275,219.63302752293575,94.67889908256882,0.0,
1760275705.8648703,30,-0.5605714285714286,1.617032967032967,167.54617582417583,-23.450381679389317,246.2290076335878,0.0,-1739.9999999999998,219.63302752293575,47.70642201834863,0.0,
1760275705.965714,31,-0.4815164835164835,1.5882857142857143,160.30186813186813,-35.17557251908397,-248.18320610687024,0.0,-1681.2844036697247,172.6605504587156,24.220183486238533,0.0,
1760275706.0664597,32,-0.5461978021978022,1.6601538461538463,167.60367032967034,-31.267175572519083,240.3664122137405,0.0,-1622.5688073394494,196.14678899082568,47.70642201834863,0.0,
1760275706.1672838,33,-0.424021978021978,1.7823296703296705,160.36654945054946,-29.31297709923664,248.18320610687024,0.0,-1563.8532110091744,219.63302752293575,0.7339449541284404,0.0,
1760275706.2680705,34,-0.5533846153846155,1.7320219780219783,167.70428571428573,-35.17557251908397,240.3664122137405,0.0,-1505.1376146788991,219.63302752293575,24.220183486238533,0.0,
1760275706.3690343,35,-0.574945054945055,1.7032747252747251,162.10575824175828,-25.404580152671755,240.3664122137405,0.0,-1446.422018348624,196.14678899082568,47.70642201834863,0.0,
1760275706.4700034,36,-0.4887032967032967,1.7463956043956046,165.80696703296704,-17.587786259541986,228.6412213740458,0.0,-1387.7064220183486,196.14678899082568,47.70642201834863,0.0,
1760275706.5709274,37,-0.5821318681318681,1.7320219780219783,169.52973626373625,-33.221374045801525,240.3664122137405,0.0,-1328.9908256880733,196.14678899082568,0.7339449541284404,0.0,
1760275706.671811,38,-0.6252527472527473,1.688901098901099,167.61804395604395,-33.221374045801525,242.3206106870229,0.0,-1270.2752293577985,266.605504587156,47.70642201834863,0.0,
1760275706.7727797,39,-0.5533846153846155,1.7032747252747251,169.36443956043956,-39.083969465648856,240.3664122137405,0.0,-1211.559633027523,172.6605504587156,24.220183486238533,0.0,
1760275706.873643,40,-0.4958901098901099,1.7823296703296705,160.36654945054946,-23.450381679389317,246.2290076335878,0.0,-1152.8440366972477,196.14678899082568,24.220183486238533,0.0,
1760275706.9744394,41,-0.424021978021978,1.6385934065934065,180.4465054945055,-33.221374045801525,248.18320610687024,0.0,-1094.1284403669724,243.11926605504587,47.70642201834863,0.0,
1760275707.0752892,42,-0.5174505494505495,1.7463956043956046,176.85309890109892,-27.3587786259542,-250.13740458015263,0.0,-1035.4128440366972,219.63302752293575,71.19266055045873,0.0,
1760275707.1761136,43,-0.539010989010989,1.617032967032967,174.97015384615386,-31.267175572519083,242.3206106870229,0.0,-976.697247706422,149.1743119266055,24.220183486238533,0.0,
1760275707.2769644,44,-0.4168351648351648,1.7535824175824175,173.1878241758242,-25.404580152671755,242.3206106870229,0.0,-917.9816513761468,196.14678899082568,0.7339449541284404,0.0,
1760275707.3778596,45,-0.4743296703296704,1.6026593406593408,165.80696703296704,-41.038167938931295,-250.13740458015263,0.0,-859.2660550458716,149.1743119266055,0.7339449541284404,0.0,
1760275707.478685,46,-0.4455824175824175,1.6673406593406594,180.4824395604396,-35.17557251908397,-248.18320610687024,0.0,-800.5504587155963,196.14678899082568,47.70642201834863,0.0,
1760275707.5794356,47,-0.5893186813186814,1.7535824175824175,165.81415384615386,-27.3587786259542,240.3664122137405,0.0,-741.8348623853211,219.63302752293575,47.70642201834863,0.0,
1760275707.6803854,48,-0.6468131868131869,1.7176483516483516,152.84914285714285,-23.450381679389317,240.3664122137405,0.0,-683.1192660550458,196.14678899082568,47.70642201834863,0.0,
1760275707.781155,49,-0.459956043956044,1.6385934065934065,163.92402197802198,-42.99236641221374,244.27480916030532,0.0,-624.4036697247706,219.63302752293575,71.19266055045873,0.0,
1760275707.8819633,50,-0.5461978021978022,1.767956043956044,174.97734065934068,-33.221374045801525,244.27480916030532,0.0,-565.6880733944954,219.63302752293575,24.220183486238533,0.0,
1760275707.982927,51,-0.539010989010989,1.631406593406593,162.077010989011,-27.3587786259542,246.2290076335878,0.0,-506.9724770642201,196.14678899082568,71.19266055045873,0.0,
1760275708.0838127,52,-0.5605714285714286,1.5451648351648353,151.13149450549452,-21.49618320610687,246.2290076335878,0.0,-448.2568807339449,149.1743119266055,47.70642201834863,0.0,
1760275708.184622,53,-0.5461978021978022,1.7176483516483516,171.2545714285714,-44.94656488549618,240.3664122137405,0.0,-389.54128440366975,243.11926605504587,-22.752293577981654,0.0,
1760275708.2854576,54,-0.4383956043956044,1.7320219780219783,176.6878021978022,-33.221374045801525,240.3664122137405,0.0,-330.8256880733945,172.6605504587156,71.19266055045873,0.0,
1760275708.3878982,55,-0.4887032967032967,1.767956043956044,178.62105494505494,-25.404580152671755,240.3664122137405,0.0,-272.11009174311926,219.63302752293575,0.7339449541284404,0.0,
1760275708.4888017,56,-0.5677582417582419,1.7823296703296705,171.37674725274724,-33.221374045801525,240.3664122137405,0.0,-213.39449541284404,243.11926605504587,24.220183486238533,0.0,
1760275708.5898085,57,-0.4887032967032967,1.6960879120879122,169.51536263736264,-23.450381679389317,-250.13740458015263,0.0,-154.6788990825688,196.14678899082568,47.70642201834863,0.0,
1760275708.690858,58,-0.5030769230769231,1.8182637362637364,169.52973626373625,-25.404580152671755,-250.13740458015263,0.0,-95.96330275229356,172.6605504587156,0.7339449541284404,0.0,
1760275708.7916324,59,-0.5821318681318681,1.7032747252747251,173.1303296703297,-39.083969465648856,242.3206106870229,0.0,-37.247706422018354,196.14678899082568,24.220183486238533,0.0,
1760275708.892482,60,1.4014285714285717,0.0359340659340659,175.04202197802198,-25.404580152671755,242.3206106870229,0.0,21.467889908256883,219.7247706422018,71.19266055045873,0.0,
1760275708.9932966,61,-0.5246373626373626,1.7176483516483516,173.25250549450553,-35.17557251908397,234.50381679389312,0.0,80.18348623853211,172.75229357798165,71.19266055045873,0.0,
1760275709.0944695,62,-0.4815164835164835,1.631406593406593,160.25874725274724,-19.541984732824428,238.412213740458,0.0,138.89908256880733,196.2385321100917,24.220183486238533,0.0,
1760275709.195333,63,-0.4096483516483516,1.5882857142857143,175.0060879120879,-27.3587786259542,-250.13740458015263,0.0,197.61467889908255,196.2385321100917,24.220183486238533,0.0,
1760275709.2962377,64,-0.5461978021978022,1.7320219780219783,156.59347252747253,-39.083969465648856,238.412213740458,0.0,256.33027522935777,172.75229357798165,47.70642201834863,0.0,
1760275709.396944,65,-0.459956043956044,1.5882857142857143,165.7422857142857,-39.083969465648856,232.54961832061068,0.0,315.04587155963304,196.2385321100917,47.70642201834863,0.0,
1760275709.4992838,66,-0.5533846153846155,1.6457802197802198,178.7144835164835,-31.267175572519083,238.412213740458,0.0,373.76146788990826,219.7247706422018,94.67889908256882,0.0,
1760275709.600336,67,-0.5533846153846155,1.767956043956044,173.1447032967033,-25.404580152671755,238.412213740458,0.0,432.4770642201835,219.7247706422018,47.70642201834863,0.0,
1760275709.7012038,68,-0.5533846153846155,1.767956043956044,176.86747252747253,-23.450381679389317,242.3206106870229,0.0,491.1926605504587,219.7247706422018,0.7339449541284404,0.0,
1760275709.801932,69,-0.5461978021978022,1.7320219780219783,186.07378021978025,-27.3587786259542,248.18320610687024,0.0,549.9082568807339,149.26605504587155,0.7339449541284404,0.0,
1760275709.9029353,70,-0.4958901098901099,1.724835164835165,182.4588131868132,-15.63358778625954,236.4580152671756,0.0,608.6238532110092,219.7247706422018,94.67889908256882,0.0,
1760275710.0039744,71,-0.459956043956044,1.8182637362637364,171.31925274725273,-27.3587786259542,244.27480916030532,0.0,667.3394495412845,219.7247706422018,71.19266055045873,0.0,
1760275710.1048343,72,-0.4743296703296704,1.7607692307692309,175.01327472527473,-41.038167938931295,240.3664122137405,0.0,726.0550458715596,196.2385321100917,47.70642201834863,0.0,
1760275710.20564,73,-0.6036923076923078,1.8110769230769237,163.95995604395603,-39.083969465648856,242.3206106870229,0.0,784.7706422018349,219.7247706422018,71.19266055045873,0.0,
1760275710.3067565,74,-0.4383956043956044,1.7967032967032968,175.0348351648352,-39.083969465648856,246.2290076335878,0.0,843.4862385321101,196.2385321100917,47.70642201834863,0.0,
1760275710.4076357,75,-0.4455824175824175,1.6745274725274726,163.92402197802198,-35.17557251908397,228.6412213740458,0.0,902.2018348623852,196.2385321100917,47.70642201834863,0.0,
1760275710.50847,76,-0.4887032967032967,1.6242197802197802,167.66835164835166,-37.12977099236641,240.3664122137405,0.0,960.9174311926604,172.75229357798165,24.220183486238533,0.0,
1760275710.609358,77,-0.5533846153846155,1.6026593406593408,174.96296703296704,-27.3587786259542,248.18320610687024,0.0,1019.6330275229355,219.7247706422018,47.70642201834863,0.0,
1760275710.7102983,78,-0.5174505494505495,1.767956043956044,167.66116483516484,-27.3587786259542,242.3206106870229,0.0,1078.348623853211,196.2385321100917,71.19266055045873,0.0,
1760275710.8110774,79,-0.4455824175824175,1.688901098901099,167.56054945054944,-29.31297709923664,238.412213740458,0.0,1137.0642201834862,196.2385321100917,47.70642201834863,0.0,
1760275710.91192,80,-0.4887032967032967,1.7176483516483516,173.12314285714288,-41.038167938931295,240.3664122137405,0.0,1195.7798165137615,243.2110091743119,24.220183486238533,0.0,
1760275711.012662,81,-0.3952747252747253,1.7463956043956046,165.7279120879121,-35.17557251908397,242.3206106870229,0.0,1254.4954128440368,196.2385321100917,47.70642201834863,0.0,
1760275711.1143188,82,-0.5677582417582419,1.6817142857142855,162.10575824175828,-25.404580152671755,238.412213740458,0.0,1313.2110091743118,172.75229357798165,47.70642201834863,0.0,
1760275711.2151153,83,-0.5102637362637363,1.80389010989011,178.5851208791209,-33.221374045801525,238.412213740458,0.0,1371.926605504587,172.75229357798165,0.7339449541284404,0.0,
1760275711.3160508,84,-0.5246373626373626,1.7463956043956046,169.5512967032967,-25.404580152671755,234.50381679389312,0.0,1430.6422018348624,172.75229357798165,24.220183486238533,0.0,
1760275711.4169395,85,-0.5030769230769231,1.6457802197802198,163.95995604395603,-31.267175572519083,248.18320610687024,0.0,1489.3577981651376,196.2385321100917,0.7339449541284404,0.0,
1760275711.5178149,86,-0.4527692307692308,1.7535824175824175,178.68573626373626,-33.221374045801525,240.3664122137405,0.0,1548.073394495413,196.2385321100917,24.220183486238533,0.0,
1760275711.618525,87,-0.4671428571428571,1.6242197802197802,165.82134065934068,-39.083969465648856,234.50381679389312,0.0,1606.788990825688,219.7247706422018,-22.752293577981654,0.0,
1760275711.720555,88,-0.5461978021978022,1.6385934065934065,162.1776263736264,-35.17557251908397,244.27480916030532,0.0,1665.5045871559632,243.2110091743119,24.220183486238533,0.0,
1760275711.821384,89,-0.4887032967032967,1.7967032967032968,174.99890109890111,-27.3587786259542,240.3664122137405,0.0,1724.2201834862385,172.75229357798165,94.67889908256882,0.0,
1760275711.9221964,90,-0.539010989010989,1.7392087912087917,156.57909890109892,-21.49618320610687,236.4580152671756,0.0,1782.9357798165138,219.7247706422018,47.70642201834863,0.0,
1760275712.0229151,91,-0.4671428571428571,1.7176483516483516,173.195010989011,-35.17557251908397,248.18320610687024,0.0,1841.651376146789,149.26605504587155,24.220183486238533,0.0,
1760275712.123734,92,-0.5605714285714286,1.7392087912087917,160.1725054945055,-33.221374045801525,242.3206106870229,0.0,1900.366972477064,172.75229357798165,71.19266055045873,0.0,
1760275712.224509,93,-0.4815164835164835,1.7032747252747251,178.56356043956043,-39.083969465648856,240.3664122137405,0.0,1959.0825688073396,196.2385321100917,0.7339449541284404,0.0,
1760275712.3253045,94,-0.5677582417582419,1.7176483516483516,167.57492307692308,-41.038167938931295,-248.18320610687024,0.0,2017.798165137615,196.2385321100917,71.19266055045873,0.0,
1760275712.4261613,95,-0.4527692307692308,1.7463956043956046,171.4054945054945,-39.083969465648856,236.4580152671756,0.0,2076.5137614678897,196.2385321100917,-22.752293577981654,0.0,
1760275712.52703,96,-0.459956043956044,1.688901098901099,184.1908351648352,-25.404580152671755,244.27480916030532,0.0,2135.229357798165,219.7247706422018,71.19266055045873,0.0,
1760275712.6279838,97,-0.4527692307692308,1.6960879120879122,167.66835164835166,-31.267175572519083,242.3206106870229,0.0,2193.9449541284403,219.7247706422018,71.19266055045873,0.0,
1760275712.7287788,98,-0.5030769230769231,1.6673406593406594,165.73509890109892,-37.12977099236641,246.2290076335878,0.0,2252.6605504587155,266.697247706422,47.70642201834863,0.0,
1760275712.829557,99,-0.4527692307692308,1.7463956043956046,167.68272527472527,-33.221374045801525,248.18320610687024,0.0,2311.376146788991,196.2385321100917,47.70642201834863,0.0,
1760275712.9303648,100,-0.4887032967032967,1.724835164835165,169.47224175824175,-33.221374045801525,238.412213740458,0.0,2370.091743119266,196.2385321100917,0.7339449541284404,0.0,
1760130045.2707224,0,-105.32274725274723,17.147736263736263,-7.301802197802198,-85.93129770992367,0.0305343511450381,-0.5343511450381679,21.100917431192663,-1759.1743119266057,-939.4495412844036,0.0,
1760130045.30284,1,3.4065494505494507,119.58857142857144,152.31013186813186,15.717557251908396,15.603053435114504,9.427480916030534,-1691.0091743119267,-540.2752293577981,563.6697247706422,0.0,
1760130045.3133583,2,1.5451648351648353,3.4065494505494507,-115.90892307692307,161.793893129771,15.725190839694656,15.587786259541986,113.48623853211008,-1385.6880733944954,-328.89908256880733,0.0,
1760130045.334351,3,-128.64395604395605,-84.63191208791208,-58.87437362637363,0.0076335877862595,-97.21374045801528,22.12213740458015,-140.1834862385321,-1079.7247706422015,0.3669724770642202,0.0,
1760130045.365907,4,-126.89756043956044,-73.59296703296704,-62.55402197802199,0.0076335877862595,-92.32824427480917,20.16793893129771,-116.69724770642202,-1079.7247706422015,0.3669724770642202,0.0,
1760130045.3766582,5,-124.90681318681318,-77.27261538461539,-62.55402197802199,0.0076335877862595,-87.44274809160305,22.12213740458015,-116.69724770642202,-1056.2385321100917,0.3669724770642202,0.0,
1760130045.397943,6,-121.2056043956044,-75.43279120879122,-62.55402197802199,0.0076335877862595,-82.55725190839695,22.12213740458015,-140.1834862385321,-1079.7247706422015,0.3669724770642202,0.0,
1760130045.429638,7,-124.97868131868132,-79.11243956043957,-68.07349450549451,0.0076335877862595,-77.67175572519083,22.12213740458015,-140.1834862385321,-1079.7247706422015,0.3669724770642202,0.0,
1760130045.440375,8,-134.04125274725274,-73.59296703296704,-66.23367032967033,0.0076335877862595,-72.78625954198473,22.12213740458015,-116.69724770642202,-1056.2385321100917,0.3669724770642202,0.0,
1760130045.4616835,9,-121.19123076923078,-80.95226373626375,-51.515076923076926,0.0076335877862595,-67.90076335877863,20.16793893129771,-116.69724770642202,-1103.2110091743118,0.3669724770642202,0.0,
1760130045.472362,10,-139.6900879120879,-64.39384615384616,-66.23367032967033,0.0076335877862595,-63.01526717557252,18.213740458015263,-116.69724770642202,-1103.2110091743118,0.3669724770642202,0.0,
1760130045.4936814,11,-128.5720879120879,-77.27261538461539,-62.55402197802199,0.0076335877862595,-58.12977099236641,24.0763358778626,-116.69724770642202,-1032.7522935779816,0.3669724770642202,0.0,
1760130045.5254295,12,-124.9714945054945,-77.27261538461539,-62.55402197802199,0.0076335877862595,-53.2442748091603,20.16793893129771,-140.1834862385321,-1103.2110091743118,0.3669724770642202,0.0,
1760130045.5361469,13,-132.36672527472527,-69.91331868131869,-62.55402197802199,0.0076335877862595,-48.3587786259542,22.12213740458015,-140.1834862385321,-1056.2385321100917,0.3669724770642202,0.0,
1760130045.5574265,14,-128.5720879120879,-90.1513846153846,-62.55402197802199,0.0076335877862595,-43.47328244274809,27.98473282442748,-140.1834862385321,-1056.2385321100917,0.3669724770642202,0.0,
1760130045.5891862,15,-125.01461538461538,-80.95226373626375,-60.71419780219781,0.0076335877862595,-38.58778625954199,20.16793893129771,-116.69724770642202,-1009.2660550458716,0.3669724770642202,0.0,
1760130045.599875,16,-126.69632967032967,-73.59296703296704,-64.39384615384616,0.0076335877862595,-33.70229007633588,24.0763358778626,-93.21100917431193,-1079.7247706422015,0.3669724770642202,0.0,
1760130045.6212058,17,-135.93857142857144,-79.11243956043957,-80.95226373626375,0.0076335877862595,-28.81679389312977,20.16793893129771,-140.1834862385321,-1103.2110091743118,0.3669724770642202,0.0,
1760130045.6319451,18,-134.14186813186814,-68.07349450549451,-58.87437362637363,0.0076335877862595,-23.931297709923665,20.16793893129771,-140.1834862385321,-1079.7247706422015,0.3669724770642202,0.0,
1760130045.6531904,19,-143.37692307692308,-77.27261538461539,-60.71419780219781,0.0076335877862595,-19.04580152671756,20.16793893129771,-116.69724770642202,-1103.2110091743118,0.3669724770642202,0.0,
1760130045.6743276,20,-135.95294505494508,-79.11243956043957,-64.39384615384616,0.0076335877862595,-14.16030534351145,22.12213740458015,-93.21100917431193,-1079.7247706422015,0.3669724770642202,0.0,
1760130045.685041,21,-134.15624175824175,-75.43279120879122,-60.71419780219781,0.0076335877862595,-9.274809160305344,18.213740458015263,-163.6697247706422,-1032.7522935779816,0.3669724770642202,0.0,
1760130045.7062252,22,-130.57720879120882,-75.43279120879122,-64.39384615384616,0.0076335877862595,-4.3893129770992365,22.12213740458015,-116.69724770642202,-1032.7522935779816,0.3669724770642202,0.0,
1760130045.7378192,23,-137.81432967032967,-77.27261538461539,-68.07349450549451,0.0076335877862595,0.4961832061068702,24.083969465648856,-116.69724770642202,-1079.7247706422015,0.3669724770642202,0.0,
1760130045.7484438,24,-143.34817582417585,-90.1513846153846,-62.55402197802199,0.0076335877862595,5.3816793893129775,22.129770992366414,-116.69724770642202,-1056.2385321100917,0.3669724770642202,0.0,
1760130045.7696884,25,-139.59665934065933,-75.43279120879122,-73.59296703296704,0.0076335877862595,10.267175572519085,24.083969465648856,-163.6697247706422,-1079.7247706422015,0.3669724770642202,0.0,
1760130045.7803442,26,-141.45804395604398,-84.63191208791208,-75.43279120879122,0.0076335877862595,15.15267175572519,22.129770992366414,-116.69724770642202,-1056.2385321100917,0.3669724770642202,0.0,
1760130045.8014176,27,-123.1172967032967,-73.59296703296704,-53.3549010989011,0.0076335877862595,20.0381679389313,22.129770992366414,-163.6697247706422,-1079.7247706422015,0.3669724770642202,0.0,
1760130045.833189,28,-130.49096703296703,-68.07349450549451,-60.71419780219781,0.0076335877862595,24.923664122137403,22.129770992366414,-116.69724770642202,-1079.7247706422015,0.3669724770642202,0.0,
1760130045.8647704,29,-124.89962637362638,-73.59296703296704,-68.07349450549451,0.0076335877862595,29.80916030534351,24.083969465648856,-93.21100917431193,-1056.2385321100917,0.3669724770642202,0.0,
1760130045.875219,30,-119.40171428571428,-75.43279120879122,-58.87437362637363,0.0076335877862595,34.69465648854962,27.99236641221374,-116.69724770642202,-1079.7247706422015,0.3669724770642202,0.0,
1760130045.8963494,31,-130.44065934065935,-71.75314285714286,-69.91331868131869,0.0076335877862595,39.58015267175573,20.17557251908397,-116.69724770642202,-1103.2110091743118,0.3669724770642202,0.0,
1760130045.9281936,32,-121.21279120879122,-77.27261538461539,-60.71419780219781,0.0076335877862595,44.46564885496184,22.129770992366414,-140.1834862385321,-985.7798165137616,0.3669724770642202,0.0,
1760130045.9388716,33,-130.48378021978024,-69.91331868131869,-58.87437362637363,0.0076335877862595,49.35114503816794,24.083969465648856,-69.72477064220183,-1056.2385321100917,0.3669724770642202,0.0,
1760130045.9600987,34,-150.64997802197803,-77.27261538461539,-57.03454945054945,0.0076335877862595,54.23664122137404,24.083969465648856,-69.72477064220183,-1103.2110091743118,0.3669724770642202,0.0,
1760130045.9707887,35,-121.2056043956044,-79.11243956043957,-64.39384615384616,0.0076335877862595,59.12213740458015,22.129770992366414,-93.21100917431193,-1056.2385321100917,0.3669724770642202,0.0,
1760130045.992106,36,-126.71789010989012,-80.95226373626375,-68.07349450549451,0.0076335877862595,64.00763358778626,18.221374045801525,-93.21100917431193,-1056.2385321100917,0.3669724770642202,0.0,
1760130046.0027916,37,-128.6295824175824,-73.59296703296704,-64.39384615384616,0.0076335877862595,68.89312977099236,22.129770992366414,-163.6697247706422,-1103.2110091743118,0.3669724770642202,0.0,
1760130046.0242946,38,-136.032,-73.59296703296704,-51.515076923076926,0.0076335877862595,73.77862595419847,24.083969465648856,-140.1834862385321,-1126.697247706422,0.3669724770642202,0.0,
1760130046.056142,39,-134.11312087912088,-71.75314285714286,-60.71419780219781,0.0076335877862595,78.66412213740458,22.129770992366414,-140.1834862385321,-1126.697247706422,0.3669724770642202,0.0,
1760130046.0668235,40,-124.96430769230768,-77.27261538461539,-58.87437362637363,0.0076335877862595,83.54961832061069,22.129770992366414,-116.69724770642202,-1079.7247706422015,0.3669724770642202,0.0,
1760130046.088105,41,-141.5299120879121,-79.11243956043957,-62.55402197802199,0.0076335877862595,88.43511450381679,20.17557251908397,-93.21100917431193,-1079.7247706422015,0.3669724770642202,0.0,
1760130046.1092446,42,-130.46221978021978,-71.75314285714286,-68.07349450549451,0.0076335877862595,93.3206106870229,22.129770992366414,-93.21100917431193,-1056.2385321100917,0.3669724770642202,0.0,
1760130046.1201017,43,-130.4694065934066,-79.11243956043957,-57.03454945054945,0.0076335877862595,98.206106870229,24.083969465648856,-140.1834862385321,-1056.2385321100917,0.3669724770642202,0.0,
1760130046.1413522,44,-123.14604395604395,-66.23367032967033,-68.07349450549451,0.0076335877862595,103.09160305343512,22.129770992366414,-93.21100917431193,-1079.7247706422015,0.3669724770642202,0.0,
1760130046.152081,45,-124.94993406593406,-80.95226373626375,-57.03454945054945,0.0076335877862595,107.97709923664122,18.221374045801525,-140.1834862385321,-1032.7522935779816,0.3669724770642202,0.0,
1760130046.1732843,46,-128.52178021978025,-86.47173626373628,-60.71419780219781,0.0076335877862595,112.86259541984732,20.17557251908397,-140.1834862385321,-1079.7247706422015,0.3669724770642202,0.0,
1760130046.2050862,47,-123.0526153846154,-84.63191208791208,-55.19472527472528,0.0076335877862595,117.74809160305344,20.17557251908397,-140.1834862385321,-1056.2385321100917,0.3669724770642202,0.0,
1760130046.2156804,48,-130.4119120879121,-75.43279120879122,-58.87437362637363,0.0076335877862595,122.63358778625954,20.17557251908397,-93.21100917431193,-1032.7522935779816,0.3669724770642202,0.0,
1760130046.2369418,49,-139.6757142857143,-77.27261538461539,-69.91331868131869,0.0076335877862595,127.51908396946564,20.17557251908397,-116.69724770642202,-1079.7247706422015,0.3669724770642202,0.0,
1760130046.247705,50,-139.6182197802198,-79.11243956043957,-60.71419780219781,0.0076335877862595,132.40458015267177,22.129770992366414,-116.69724770642202,-1009.2660550458716,0.3669724770642202,0.0,
1760130046.279352,51,-132.36672527472527,-77.27261538461539,-64.39384615384616,0.0076335877862595,137.29007633587787,24.083969465648856,-163.6697247706422,-1126.697247706422,0.3669724770642202,0.0,
1760130046.3112197,52,-126.79694505494508,-66.23367032967033,-60.71419780219781,0.0076335877862595,142.17557251908397,18.221374045801525,-140.1834862385321,-1079.7247706422015,0.3669724770642202,0.0,
1760130046.3218763,53,-123.01668131868132,-88.31156043956044,-66.23367032967033,0.0076335877862595,147.06106870229007,20.17557251908397,-93.21100917431193,-1056.2385321100917,0.3669724770642202,0.0,
1760130046.3431993,54,-111.94898901098902,-88.31156043956044,-51.515076923076926,0.0076335877862595,151.94656488549617,22.129770992366414,-116.69724770642202,-1032.7522935779816,0.3669724770642202,0.0,
1760130046.3539698,55,-143.3841098901099,-75.43279120879122,-64.39384615384616,0.0076335877862595,156.8320610687023,22.129770992366414,-140.1834862385321,-1103.2110091743118,0.3669724770642202,0.0,
1760130046.375279,56,-124.8636923076923,-73.59296703296704,-49.67525274725275,0.0076335877862595,161.7175572519084,26.0381679389313,-116.69724770642202,-1150.1834862385322,0.3669724770642202,0.0,
1760130046.396593,57,-130.61314285714286,-75.43279120879122,-68.07349450549451,0.0076335877862595,166.6030534351145,20.17557251908397,-140.1834862385321,-1103.2110091743118,0.3669724770642202,0.0,
1760130046.4073958,58,-126.82569230769232,-75.43279120879122,-55.19472527472528,0.0076335877862595,171.4885496183206,22.129770992366414,-116.69724770642202,-1056.2385321100917,0.3669724770642202,0.0,
1760130046.4389477,59,-135.93138461538462,-66.23367032967033,-68.07349450549451,0.0076335877862595,176.3740458015267,22.129770992366414,-93.21100917431193,-1056.2385321100917,0.3669724770642202,0.0,
1760130046.4707117,60,-143.35536263736265,-73.59296703296704,-68.07349450549451,0.0076335877862595,181.25954198473283,22.129770992366414,-93.21100917431193,-1056.2385321100917,0.3669724770642202,0.0,
1760130046.4814343,61,-112.07835164835166,-69.91331868131869,-75.43279120879122,0.0076335877862595,186.1450381679389,24.083969465648856,-116.69724770642202,-1056.2385321100917,0.3669724770642202,0.0,
1760130046.5027606,62,-126.84006593406596,-75.43279120879122,-71.75314285714286,0.0076335877862595,191.03053435114504,20.17557251908397,-116.69724770642202,-1079.7247706422015,0.3669724770642202,0.0,
1760130046.5134563,63,0.0,-139.6325934065934,-71.75314285714286,-70.35114503816794,0.0076335877862595,195.91603053435117,265.9633027522936,-116.69724770642202,-1079.7247706422015,0.0,
1760130046.5348165,64,-0.3305934065934066,1.724835164835165,-110.25290109890108,-82.07633587786259,-72.30534351145039,0.0076335877862595,2413.302752293578,242.47706422018348,-93.21100917431193,0.0,
1760130046.556007,65,-0.4815164835164835,1.6385934065934065,-143.34817582417585,-72.30534351145039,-72.30534351145039,0.0076335877862595,2472.0183486238534,218.9908256880734,-93.21100917431193,0.0,
1760130046.5667195,66,-0.459956043956044,1.7392087912087917,-119.42327472527472,-82.07633587786259,-62.534351145038165,0.0076335877862595,2530.7339449541287,289.44954128440367,-116.69724770642202,0.0,
1760130046.587999,67,-0.4743296703296704,1.6529670329670332,-143.2691208791209,-84.03053435114504,-66.44274809160305,0.0076335877862595,2589.4495412844035,289.44954128440367,-140.1834862385321,0.0,
1760130046.598823,68,-0.5821318681318681,1.7535824175824175,-121.19123076923078,-82.07633587786259,-72.30534351145039,0.0076335877862595,2648.1651376146788,242.47706422018348,-140.1834862385321,0.0,
1760130046.6200795,69,-0.4312087912087912,1.6673406593406594,-130.47659340659342,-80.12213740458016,-64.4885496183206,0.0076335877862595,2706.880733944954,265.9633027522936,-116.69724770642202,0.0,
1760130046.6518495,70,-0.4527692307692308,1.767956043956044,-126.80413186813188,-76.21374045801527,-70.35114503816794,0.0076335877862595,2765.5963302752293,265.9633027522936,-93.21100917431193,0.0,
1760130046.6625702,71,-0.4024615384615385,1.724835164835165,-124.93556043956043,-89.89312977099236,-62.534351145038165,0.0076335877862595,2824.3119266055046,312.9357798165138,-93.21100917431193,0.0,
1760130046.683814,72,-0.5965054945054945,1.7104615384615385,-132.27329670329672,-85.98473282442748,-64.4885496183206,0.0076335877862595,2883.02752293578,289.44954128440367,-116.69724770642202,0.0,
1760130046.715464,73,-0.5821318681318681,1.6960879120879122,-141.4796043956044,-70.35114503816794,-72.30534351145039,0.0076335877862595,2941.743119266055,218.9908256880734,-163.6697247706422,0.0,
1760130046.7261176,74,-0.5893186813186814,1.5954725274725277,-128.64395604395605,-89.89312977099236,-74.25954198473282,0.0076335877862595,3000.4587155963304,289.44954128440367,-93.21100917431193,0.0,
1760130046.7473044,75,-0.424021978021978,1.7104615384615385,-130.5269010989011,-80.12213740458016,-62.534351145038165,0.0076335877862595,-2953.3027522935777,312.9357798165138,-116.69724770642202,0.0,
1760130046.758151,76,-0.424021978021978,1.7032747252747251,-132.3164175824176,-93.80152671755724,-72.30534351145039,0.0076335877862595,-2894.587155963303,218.9908256880734,-93.21100917431193,0.0,
1760130046.7898183,77,-0.4958901098901099,1.6457802197802198,-124.87806593406592,-84.03053435114504,-68.3969465648855,0.0076335877862595,-2835.871559633028,265.9633027522936,-116.69724770642202,0.0,
1760130046.8111193,78,-0.4383956043956044,1.5954725274725277,-122.92325274725276,-74.25954198473282,-68.3969465648855,0.0076335877862595,-2777.1559633027523,265.9633027522936,-140.1834862385321,0.0,
1760130046.8218884,79,-0.4671428571428571,1.7032747252747251,-123.0023076923077,-85.98473282442748,-70.35114503816794,0.0076335877862595,-2718.440366972477,265.9633027522936,-140.1834862385321,0.0,
1760130046.8536894,80,-0.5605714285714286,1.7823296703296705,-136.06793406593408,-85.98473282442748,-66.44274809160305,0.0076335877862595,-2659.7247706422017,265.9633027522936,-116.69724770642202,0.0,
1760130046.8644104,81,-0.4455824175824175,1.7895164835164834,-115.71487912087912,-76.21374045801527,-56.67175572519084,0.0076335877862595,-2601.0091743119265,242.47706422018348,-140.1834862385321,0.0,
1760130046.8857963,82,-0.4958901098901099,1.7032747252747251,-137.7137142857143,-80.12213740458016,-70.35114503816794,0.0076335877862595,-2542.293577981651,265.9633027522936,-140.1834862385321,0.0,
1760130046.907097,83,-0.4096483516483516,1.573912087912088,-130.48378021978024,-76.21374045801527,-68.3969465648855,0.0076335877862595,-2483.577981651376,289.44954128440367,-116.69724770642202,0.0,
1760130046.9179003,84,-0.424021978021978,1.7463956043956046,-123.06698901098902,-72.30534351145039,-62.534351145038165,0.0076335877862595,-2424.8623853211006,265.9633027522936,-140.1834862385321,0.0,
1760130046.939134,85,-0.6180659340659341,1.7320219780219783,-126.79694505494508,-85.98473282442748,-68.3969465648855,0.0076335877862595,-2366.1467889908254,242.47706422018348,-163.6697247706422,0.0,
1760130046.9499166,86,-0.3952747252747253,1.724835164835165,-128.63676923076923,-89.89312977099236,-62.534351145038165,0.0076335877862595,-2307.4311926605506,242.47706422018348,-140.1834862385321,0.0,
1760130046.9817758,87,-0.5102637362637363,1.7392087912087917,-130.55564835164836,-89.89312977099236,-64.4885496183206,0.0076335877862595,-2248.7155963302757,242.47706422018348,-93.21100917431193,0.0,
1760130047.0136492,88,-0.4815164835164835,1.7463956043956046,-115.78674725274726,-80.12213740458016,-72.30534351145039,0.0076335877862595,-2190.0,242.47706422018348,-93.21100917431193,0.0,
1760130047.0244086,89,-0.5318241758241758,1.688901098901099,-115.66457142857143,-82.07633587786259,-68.3969465648855,0.0076335877862595,-2131.2844036697247,242.47706422018348,-140.1834862385321,0.0,
1760130047.0457716,90,-0.5461978021978022,1.609846153846154,-121.17685714285716,-84.03053435114504,-70.35114503816794,0.0076335877862595,-2072.568807339449,242.47706422018348,-116.69724770642202,0.0,
1760130047.0565107,91,-0.6108791208791209,1.7176483516483516,-119.43046153846154,-82.07633587786259,-62.534351145038165,0.0076335877862595,-2013.8532110091744,265.9633027522936,-116.69724770642202,0.0,
1760130047.0778072,92,-0.5605714285714286,1.6960879120879122,-141.48679120879123,-87.93893129770993,-72.30534351145039,0.0076335877862595,-1955.137614678899,265.9633027522936,-163.6697247706422,0.0,
1760130047.1094368,93,-0.5893186813186814,1.6026593406593408,-126.68914285714288,-76.21374045801527,-66.44274809160305,0.0076335877862595,-1896.422018348624,289.44954128440367,-93.21100917431193,0.0,
1760130047.1199355,94,-0.4383956043956044,1.7320219780219783,-124.92837362637364,-82.07633587786259,-64.4885496183206,0.0076335877862595,-1837.7064220183483,265.9633027522936,-93.21100917431193,0.0,
1760130047.1616771,95,-0.3952747252747253,1.6960879120879122,-126.79694505494508,-72.30534351145039,-66.44274809160305,0.0076335877862595,-1778.9908256880733,265.9633027522936,-140.1834862385321,0.0,
1760130047.17232,96,-0.4312087912087912,1.5882857142857143,-130.44065934065935,-84.03053435114504,-74.25954198473282,0.0076335877862595,-1720.275229357798,289.44954128440367,-116.69724770642202,0.0,
1760130047.1828213,97,-0.4743296703296704,1.6673406593406594,-126.84725274725275,-76.21374045801527,-64.4885496183206,0.0076335877862595,-1661.5596330275228,218.9908256880734,-140.1834862385321,0.0,
1760130047.2041495,98,-0.4671428571428571,1.6601538461538463,-117.54751648351647,-74.25954198473282,-74.25954198473282,0.0076335877862595,-1602.8440366972477,289.44954128440367,-116.69724770642202,0.0,
1760130047.2254505,99,-0.4168351648351648,1.7032747252747251,-130.44784615384617,-82.07633587786259,-64.4885496183206,0.0076335877862595,-1544.1284403669724,289.44954128440367,-69.72477064220183,0.0,
1760130047.236153,100,-0.5102637362637363,1.6673406593406594,-119.27235164835164,-82.07633587786259,-74.25954198473282,0.0076335877862595,-1485.4128440366972,242.47706422018348,-116.69724770642202,0.0,
1760130047.257444,101,1.422989010989011,0.0934285714285714,-132.3164175824176,-80.12213740458016,-58.62595419847328,0.0076335877862595,-1426.697247706422,289.44954128440367,-140.1834862385321,0.0,
1760130047.268185,102,-0.5246373626373626,1.6601538461538463,-136.032,-93.80152671755724,-60.58015267175573,0.0076335877862595,-1367.9816513761468,242.47706422018348,-116.69724770642202,0.0,
1760130047.2893732,103,-0.5461978021978022,1.6673406593406594,-135.917010989011,-91.8473282442748,-56.67175572519084,0.0076335877862595,-1309.2660550458716,265.9633027522936,-163.6697247706422,0.0,
1760130047.3211138,104,-0.3952747252747253,1.5882857142857143,-125.00742857142856,-76.21374045801527,-70.35114503816794,0.0076335877862595,-1250.5504587155965,265.9633027522936,-93.21100917431193,0.0,
1760130047.3316288,105,-0.459956043956044,1.617032967032967,-134.07,-89.89312977099236,-62.534351145038165,0.0076335877862595,-1191.834862385321,218.9908256880734,-93.21100917431193,0.0,
1760130047.3522222,106,-0.4383956043956044,1.7320219780219783,-117.57626373626374,-82.07633587786259,-64.4885496183206,0.0076335877862595,-1133.119266055046,242.47706422018348,-140.1834862385321,0.0,
1760130047.3626158,107,-0.5677582417582419,1.6673406593406594,-135.99606593406594,-84.03053435114504,-60.58015267175573,0.0076335877862595,-1074.403669724771,265.9633027522936,-116.69724770642202,0.0,
1760130047.3832738,108,-0.4671428571428571,1.7320219780219783,-121.29903296703296,-84.03053435114504,-78.16793893129771,0.0076335877862595,-1015.6880733944954,218.9908256880734,-116.69724770642202,0.0,
1760130047.4144323,109,-0.5030769230769231,1.6745274725274726,-136.01043956043958,-78.16793893129771,-68.3969465648855,0.0076335877862595,-956.97247706422,218.9908256880734,-140.1834862385321,0.0,
1760130047.4248636,110,-0.4887032967032967,1.7895164835164834,-150.67153846153846,-80.12213740458016,-54.7175572519084,0.0076335877862595,-898.256880733945,265.9633027522936,-140.1834862385321,0.0,
1760130047.445644,111,-0.459956043956044,1.7895164835164834,-126.76819780219782,-84.03053435114504,-72.30534351145039,0.0076335877862595,-839.5412844036697,242.47706422018348,-93.21100917431193,0.0,
1760130047.4771495,112,1.3295604395604397,0.0215604395604395,-119.3585934065934,-80.12213740458016,-62.534351145038165,0.0076335877862595,-780.8256880733944,265.9633027522936,-140.1834862385321,0.0,
1760130047.4877534,113,-0.4887032967032967,1.7607692307692309,-128.65114285714287,-74.25954198473282,-68.3969465648855,0.0076335877862595,-722.1100917431193,242.47706422018348,-140.1834862385321,0.0,
1760130047.5089822,114,-0.4743296703296704,1.724835164835165,-135.90982417582418,-80.12213740458016,-64.4885496183206,0.0076335877862595,-663.3944954128441,289.44954128440367,-140.1834862385321,0.0,
1760130047.5198293,115,-0.459956043956044,1.767956043956044,-115.80830769230772,-76.21374045801527,-64.4885496183206,0.0076335877862595,-604.6788990825688,242.47706422018348,-93.21100917431193,0.0,
1760130047.5411344,116,-0.4383956043956044,1.46610989010989,-132.21580219780222,-76.21374045801527,-82.07633587786259,0.0076335877862595,-545.9633027522937,265.9633027522936,-140.1834862385321,0.0,
1760130047.5728688,117,-0.5677582417582419,1.724835164835165,-130.5197142857143,-66.44274809160305,-66.44274809160305,0.0076335877862595,-487.2477064220184,265.9633027522936,-116.69724770642202,0.0,
1760130047.5836096,118,-0.3809010989010989,1.7535824175824175,-130.37597802197803,-78.16793893129771,-64.4885496183206,0.0076335877862595,-428.5321100917432,242.47706422018348,-163.6697247706422,0.0,
1760130047.604911,119,-0.309032967032967,1.7032747252747251,-115.76518681318684,-68.3969465648855,-70.35114503816794,0.0076335877862595,-369.8165137614679,265.9633027522936,-116.69724770642202,0.0,
1760130047.6157465,120,-0.5246373626373626,1.5451648351648353,-132.33797802197802,-82.07633587786259,-68.3969465648855,0.0076335877862595,-311.10091743119267,242.47706422018348,-163.6697247706422,0.0,
1760130047.6475425,121,-0.5461978021978022,1.6026593406593408,-128.59364835164834,-74.25954198473282,-70.35114503816794,0.0076335877862595,-252.38532110091745,218.9908256880734,-140.1834862385321,0.0,
1760130047.6688814,122,-0.5174505494505495,1.631406593406593,-123.08854945054944,-74.25954198473282,-64.4885496183206,0.0076335877862595,-193.6697247706422,242.47706422018348,-116.69724770642202,0.0,
1760130047.6796255,123,-0.4743296703296704,1.7751428571428571,-119.48795604395605,-80.12213740458016,-62.534351145038165,0.0076335877862595,-134.954128440367,265.9633027522936,-116.69724770642202,0.0,
1760130047.7010214,124,-0.5246373626373626,1.7463956043956046,-128.63676923076923,-76.21374045801527,-64.4885496183206,0.0076335877862595,-76.23853211009174,265.9633027522936,-140.1834862385321,0.0,
1760130047.711728,125,-0.539010989010989,1.7392087912087917,-132.25892307692308,-87.93893129770993,-64.4885496183206,0.0076335877862595,-17.522935779816514,265.9633027522936,-140.1834862385321,0.0,
1760130047.733004,126,-0.5533846153846155,1.6817142857142855,-126.8185054945055,-70.35114503816794,-64.4885496183206,0.0076335877862595,41.19266055045871,242.56880733944956,-93.21100917431193,0.0,
1760130047.764566,127,-0.4383956043956044,1.7320219780219783,-126.79694505494508,-89.89312977099236,-68.3969465648855,0.0076335877862595,99.90825688073394,266.0550458715596,-93.21100917431193,0.0,
1760130047.7962346,128,-0.4743296703296704,1.6385934065934065,-128.5577142857143,-78.16793893129771,-68.3969465648855,0.0076335877862595,158.6238532110092,289.5412844036697,-140.1834862385321,0.0,
1760130047.807004,129,-0.3665274725274725,1.6817142857142855,-123.01668131868132,-89.89312977099236,-72.30534351145039,0.0076335877862595,217.3394495412844,219.08256880733944,-140.1834862385321,0.0,
1760130047.8282886,130,-0.4743296703296704,1.631406593406593,-124.94993406593406,-72.30534351145039,-66.44274809160305,0.0076335877862595,276.0550458715596,242.56880733944956,-140.1834862385321,0.0,
1760130047.8600962,131,-0.5893186813186814,1.609846153846154,-126.73945054945057,-78.16793893129771,-68.3969465648855,0.0076335877862595,334.7706422018349,266.0550458715596,-69.72477064220183,0.0,
1760130047.8708458,132,-0.574945054945055,1.7823296703296705,-124.96430769230768,-84.03053435114504,-62.534351145038165,0.0076335877862595,393.4862385321101,242.56880733944956,-140.1834862385321,0.0,
1760130047.8816288,133,-0.2802857142857143,1.7176483516483516,-126.73945054945057,-72.30534351145039,-68.3969465648855,0.0076335877862595,452.2018348623853,242.56880733944956,-93.21100917431193,0.0,
1760130047.8924396,134,-0.424021978021978,1.6529670329670332,-126.73945054945057,-85.98473282442748,-62.534351145038165,0.0076335877862595,510.91743119266056,289.5412844036697,-69.72477064220183,0.0,
1760130047.9243517,135,-0.459956043956044,1.6960879120879122,-121.32059340659342,-89.89312977099236,-58.62595419847328,0.0076335877862595,569.6330275229358,266.0550458715596,-116.69724770642202,0.0,
1760130047.9351206,136,-0.539010989010989,1.6745274725274726,-134.08437362637363,-85.98473282442748,-58.62595419847328,0.0076335877862595,628.348623853211,266.0550458715596,-116.69724770642202,0.0,
1760130047.956392,137,-0.5246373626373626,1.7104615384615385,-128.60802197802198,-78.16793893129771,-52.76335877862596,0.0076335877862595,687.0642201834863,289.5412844036697,-163.6697247706422,0.0,
1760130047.988068,138,1.4373626373626376,0.0,-132.25892307692308,-84.03053435114504,-68.3969465648855,0.0076335877862595,745.7798165137615,289.5412844036697,-116.69724770642202,0.0,
1760130047.9987743,139,1.2864395604395606,0.0431208791208791,-123.02386813186814,-82.07633587786259,-68.3969465648855,0.0076335877862595,804.4954128440367,289.5412844036697,-163.6697247706422,0.0,
1760130048.020074,140,-0.4168351648351648,1.7392087912087917,-130.54846153846154,-82.07633587786259,-68.3969465648855,0.0076335877862595,863.2110091743119,266.0550458715596,-140.1834862385321,0.0,
1760130048.05198,141,-0.4887032967032967,1.609846153846154,-126.761010989011,-78.16793893129771,-58.62595419847328,0.0076335877862595,921.9266055045872,289.5412844036697,-93.21100917431193,0.0,
1760130048.0627391,142,-0.5821318681318681,1.6817142857142855,-136.01043956043958,-85.98473282442748,-66.44274809160305,0.0076335877862595,980.6422018348624,289.5412844036697,-140.1834862385321,0.0,
1760130048.084168,143,-0.5246373626373626,1.7104615384615385,-126.77538461538462,-89.89312977099236,-62.534351145038165,0.0076335877862595,1039.3577981651376,242.56880733944956,-116.69724770642202,0.0,
1760130048.094926,144,-0.3880879120879121,1.724835164835165,-126.89037362637364,-84.03053435114504,-58.62595419847328,0.0076335877862595,1098.073394495413,242.56880733944956,-140.1834862385321,0.0,
1760130048.1159124,145,-0.5318241758241758,1.5307912087912088,-121.26309890109891,-72.30534351145039,-74.25954198473282,0.0076335877862595,1156.788990825688,219.08256880733944,-116.69724770642202,0.0,
1760130048.137136,146,-0.5246373626373626,1.6745274725274726,-123.02386813186814,-82.07633587786259,-66.44274809160305,0.0076335877862595,1215.5045871559632,266.0550458715596,-140.1834862385321,0.0,
1760130048.147926,147,-0.5677582417582419,1.6960879120879122,-134.10593406593406,-85.98473282442748,-54.7175572519084,0.0076335877862595,1274.2201834862385,289.5412844036697,-140.1834862385321,0.0,
1760130048.1691608,148,-0.5677582417582419,1.724835164835165,-115.8586153846154,-70.35114503816794,-62.534351145038165,0.0076335877862595,1332.9357798165138,266.0550458715596,-93.21100917431193,0.0,
1760130048.179891,149,-0.5533846153846155,1.7392087912087917,-137.8287032967033,-68.3969465648855,-74.25954198473282,0.0076335877862595,1391.651376146789,313.0275229357798,-93.21100917431193,0.0,
1760130048.211782,150,-0.5246373626373626,1.7607692307692309,-125.028989010989,-76.21374045801527,-56.67175572519084,0.0076335877862595,1450.366972477064,266.0550458715596,-69.72477064220183,0.0,
1760130048.2436087,151,-0.4383956043956044,1.7032747252747251,-123.13885714285716,-72.30534351145039,-66.44274809160305,0.0076335877862595,1509.0825688073394,266.0550458715596,-93.21100917431193,0.0,
1760130048.254183,152,-0.4527692307692308,1.7392087912087917,-126.761010989011,-78.16793893129771,-72.30534351145039,0.0076335877862595,1567.798165137615,242.56880733944956,-116.69724770642202,0.0,
1760130048.2752278,153,-0.459956043956044,1.724835164835165,-128.60083516483516,-74.25954198473282,-60.58015267175573,0.0076335877862595,1626.51376146789,242.56880733944956,-93.21100917431193,0.0,
1760130048.285932,154,-0.5821318681318681,1.8110769230769237,-136.00325274725276,-78.16793893129771,-66.44274809160305,0.0076335877862595,1685.2293577981652,242.56880733944956,-140.1834862385321,0.0,
1760130048.307289,155,-0.539010989010989,1.7392087912087917,-132.27329670329672,-78.16793893129771,-66.44274809160305,0.0076335877862595,1743.9449541284405,289.5412844036697,-140.1834862385321,0.0,
1760130048.3388493,156,-0.5965054945054945,1.7320219780219783,-132.30204395604397,-84.03053435114504,-64.4885496183206,0.0076335877862595,1802.6605504587155,242.56880733944956,-163.6697247706422,0.0,
1760130048.3496523,157,-0.4743296703296704,1.6745274725274726,-119.38734065934068,-72.30534351145039,-68.3969465648855,0.0076335877862595,1861.3761467889908,266.0550458715596,-116.69724770642202,0.0,
1760130048.3604214,158,-0.4024615384615385,1.617032967032967,-143.35536263736265,-85.98473282442748,-78.16793893129771,0.0076335877862595,1920.091743119266,289.5412844036697,-140.1834862385321,0.0,
1760130048.3916905,159,-0.5246373626373626,1.6457802197802198,-117.56907692307692,-84.03053435114504,-64.4885496183206,0.0076335877862595,1978.8073394495411,242.56880733944956,-93.21100917431193,0.0,
1760130048.422901,160,-0.5174505494505495,1.6817142857142855,-137.85026373626374,-85.98473282442748,-66.44274809160305,0.0076335877862595,2037.5229357798169,242.56880733944956,-116.69724770642202,0.0,
1760130048.4336464,161,-0.4743296703296704,1.7535824175824175,-113.93973626373626,-84.03053435114504,-64.4885496183206,0.0076335877862595,2096.238532110092,313.0275229357798,-93.21100917431193,0.0,
1760130048.4652314,162,-0.4455824175824175,1.631406593406593,-143.3266153846154,-70.35114503816794,-70.35114503816794,0.0076335877862595,2154.954128440367,242.56880733944956,-116.69724770642202,0.0,
1760130048.4759295,163,-0.5246373626373626,1.7104615384615385,-121.19123076923078,-87.93893129770993,-68.3969465648855,0.0076335877862595,2213.6697247706425,289.5412844036697,-93.21100917431193,0.0,
1760130048.4867654,164,-0.4958901098901099,1.7320219780219783,-124.914,-80.12213740458016,-72.30534351145039,0.0076335877862595,2272.3853211009173,242.56880733944956,-116.69724770642202,0.0,
1760130048.4975498,165,-0.4887032967032967,1.6601538461538463,-126.83287912087911,-93.80152671755724,-68.3969465648855,0.0076335877862595,2331.100917431193,266.0550458715596,-116.69724770642202,0.0,
1760130048.518863,166,-0.5102637362637363,1.7032747252747251,-139.65415384615383,-76.21374045801527,-66.44274809160305,0.0076335877862595,2389.816513761468,289.5412844036697,-116.69724770642202,0.0,
1760130048.5505865,167,-0.4096483516483516,1.6817142857142855,-132.2804835164835,-74.25954198473282,-70.35114503816794,0.0076335877862595,2448.532110091743,266.0550458715596,-116.69724770642202,0.0,
1760130048.5612705,168,-0.4455824175824175,1.6529670329670332,-126.69632967032967,-72.30534351145039,-64.4885496183206,0.0076335877862595,2507.2477064220184,266.0550458715596,-116.69724770642202,0.0,
1760130048.5826256,169,-0.4168351648351648,1.6960879120879122,-128.64395604395605,-72.30534351145039,-66.44274809160305,0.0076335877862595,2565.9633027522937,219.08256880733944,-93.21100917431193,0.0,
1760130048.61442,170,-0.5965054945054945,1.7392087912087917,-132.222989010989,-80.12213740458016,-62.534351145038165,0.0076335877862595,2624.678899082569,242.56880733944956,-140.1834862385321,0.0,
1760130048.6252024,171,-0.5174505494505495,1.6457802197802198,-134.1274945054945,-74.25954198473282,-66.44274809160305,0.0076335877862595,2683.394495412844,266.0550458715596,-93.21100917431193,0.0,
1760130048.646626,172,-0.424021978021978,1.7176483516483516,-124.8636923076923,-72.30534351145039,-64.4885496183206,0.0076335877862595,2742.1100917431195,219.08256880733944,-140.1834862385321,0.0,
1760130048.657397,173,-0.4743296703296704,1.7104615384615385,-130.43347252747253,-76.21374045801527,-68.3969465648855,0.0076335877862595,2800.8256880733948,289.5412844036697,-140.1834862385321,0.0,
1760130048.67882,174,-0.4383956043956044,1.6745274725274726,-135.98887912087912,-74.25954198473282,-66.44274809160305,0.0076335877862595,2859.5412844036696,289.5412844036697,-116.69724770642202,0.0,
1760130048.710697,175,-0.5102637362637363,1.6960879120879122,-126.7035164835165,-82.07633587786259,-66.44274809160305,0.0076335877862595,2918.256880733945,289.5412844036697,-116.69724770642202,0.0,
1760130048.7213964,176,-0.5174505494505495,1.7392087912087917,-128.52896703296705,-85.98473282442748,-74.25954198473282,0.0076335877862595,2976.97247706422,242.56880733944956,-140.1834862385321,0.0,
1760130048.7427714,177,-0.4312087912087912,1.7032747252747251,-124.914,-72.30534351145039,-58.62595419847328,0.0076335877862595,-2976.788990825688,266.0550458715596,-163.6697247706422,0.0,
1760130048.7742918,178,-0.4455824175824175,1.6529670329670332,-145.1808131868132,-82.07633587786259,-62.534351145038165,0.0076335877862595,-2918.0733944954127,289.5412844036697,-140.1834862385321,0.0,
1760130048.785041,179,-0.6036923076923078,1.767956043956044,-134.03406593406592,-76.21374045801527,-68.3969465648855,0.0076335877862595,-2859.3577981651374,266.0550458715596,-93.21100917431193,0.0,
1760130048.80626,180,-0.4312087912087912,1.7176483516483516,-123.13885714285716,-76.21374045801527,-62.534351145038165,0.0076335877862595,-2800.642201834862,266.0550458715596,-116.69724770642202,0.0,
1760130048.8170016,181,-0.6108791208791209,1.6242197802197802,-126.80413186813188,-76.21374045801527,-64.4885496183206,0.0076335877862595,-2741.926605504587,289.5412844036697,-116.69724770642202,0.0,
1760130048.838184,182,-0.4743296703296704,1.6817142857142855,-115.63582417582418,-78.16793893129771,-66.44274809160305,0.0076335877862595,-2683.211009174312,266.0550458715596,-116.69724770642202,0.0,
1760130048.8594253,183,-0.539010989010989,1.6242197802197802,-136.06793406593408,-70.35114503816794,-70.35114503816794,0.0076335877862595,-2624.4954128440368,266.0550458715596,-116.69724770642202,0.0,
1760130048.8701837,184,-0.5174505494505495,1.5882857142857143,-119.39452747252749,-82.07633587786259,-74.25954198473282,0.0076335877862595,-2565.779816513761,242.56880733944956,-116.69724770642202,0.0,
1760130048.8916254,185,-0.5030769230769231,1.7392087912087917,-132.3739120879121,-84.03053435114504,-74.25954198473282,0.0076335877862595,-2507.064220183486,266.0550458715596,-140.1834862385321,0.0,
1760130048.923366,186,-0.4671428571428571,1.6385934065934065,-119.43764835164836,-82.07633587786259,-64.4885496183206,0.0076335877862595,-2448.348623853211,242.56880733944956,-140.1834862385321,0.0,
1760130048.9341547,187,-0.3952747252747253,1.6817142857142855,-121.22716483516484,-95.7557251908397,-66.44274809160305,0.0076335877862595,-2389.633027522936,266.0550458715596,-116.69724770642202,0.0,
1760130048.955412,188,-0.3665274725274725,1.8182637362637364,-141.45804395604398,-74.25954198473282,-62.534351145038165,0.0076335877862595,-2330.9174311926604,266.0550458715596,-116.69724770642202,0.0,
1760130048.966174,189,-0.4815164835164835,1.7823296703296705,-124.9211868131868,-84.03053435114504,-66.44274809160305,0.0076335877862595,-2272.201834862385,242.56880733944956,-93.21100917431193,0.0,
1760130048.9874563,190,-0.539010989010989,1.7320219780219783,-128.62239560439562,-76.21374045801527,-66.44274809160305,0.0076335877862595,-2213.48623853211,219.08256880733944,-93.21100917431193,0.0,
1760130049.0192995,191,-0.5677582417582419,1.6673406593406594,-132.35235164835166,-78.16793893129771,-66.44274809160305,0.0076335877862595,-2154.7706422018346,266.0550458715596,-116.69724770642202,0.0,
1760130049.0300095,192,-0.4527692307692308,1.6673406593406594,-126.71789010989012,-89.89312977099236,-52.76335877862596,0.0076335877862595,-2096.0550458715597,266.0550458715596,-93.21100917431193,0.0,
1760130049.051396,193,-0.4887032967032967,1.6601538461538463,-123.0598021978022,-85.98473282442748,-80.12213740458016,0.0076335877862595,-2037.339449541284,266.0550458715596,-116.69724770642202,0.0,
1760130049.0832026,194,-0.6036923076923078,1.7895164835164834,-143.26193406593407,-82.07633587786259,-58.62595419847328,0.0076335877862595,-1978.623853211009,289.5412844036697,-116.69724770642202,0.0,
1760130049.0939794,195,-0.5030769230769231,1.6960879120879122,-121.3062197802198,-80.12213740458016,-70.35114503816794,0.0076335877862595,-1919.9082568807337,266.0550458715596,-140.1834862385321,0.0,
1760130049.1153257,196,-0.5533846153846155,1.537978021978022,-130.44784615384617,-87.93893129770993,-62.534351145038165,0.0076335877862595,-1861.1926605504584,242.56880733944956,-116.69724770642202,0.0,
1760130049.1260836,197,-0.654,1.6673406593406594,-117.54751648351647,-70.35114503816794,-66.44274809160305,0.0076335877862595,-1802.4770642201836,219.08256880733944,-163.6697247706422,0.0,
1760130049.1474147,198,-0.654,1.6457802197802198,-121.14810989010992,-85.98473282442748,-54.7175572519084,0.0076335877862595,-1743.761467889908,266.0550458715596,-93.21100917431193,0.0,
1760130049.1792314,199,-0.6036923076923078,1.6242197802197802,-143.42004395604397,-84.03053435114504,-58.62595419847328,0.0076335877862595,-1685.0458715596328,242.56880733944956,-116.69724770642202,0.0,
1760130049.190076,200,-0.4887032967032967,1.724835164835165,-124.93556043956043,-80.12213740458016,-66.44274809160305,0.0076335877862595,-1626.3302752293575,266.0550458715596,-140.1834862385321,0.0,
1760130049.2009404,201,-0.4383956043956044,1.6601538461538463,-132.3739120879121,-87.93893129770993,-78.16793893129771,0.0076335877862595,-1567.6146788990825,266.0550458715596,-163.6697247706422,0.0,
1760130049.2326703,202,-0.4383956043956044,1.7176483516483516,-117.55470329670332,-74.25954198473282,-56.67175572519084,0.0076335877862595,-1508.8990825688074,289.5412844036697,-116.69724770642202,0.0,
1760130049.2446432,203,-0.4527692307692308,1.7607692307692309,-132.3739120879121,-87.93893129770993,-72.30534351145039,0.0076335877862595,-1450.1834862385322,266.0550458715596,-93.21100917431193,0.0,
1760130049.2657862,204,-0.4527692307692308,1.6673406593406594,-128.5720879120879,-85.98473282442748,-74.25954198473282,0.0076335877862595,-1391.467889908257,266.0550458715596,-116.69724770642202,0.0,
1760130049.2975478,205,-0.5318241758241758,1.7823296703296705,-123.1101098901099,-91.8473282442748,-58.62595419847328,0.0076335877862595,-1332.7522935779816,266.0550458715596,-163.6697247706422,0.0,
1760130049.3082674,206,-0.4887032967032967,1.6457802197802198,-124.99305494505494,-78.16793893129771,-66.44274809160305,0.0076335877862595,-1274.0366972477063,313.0275229357798,-93.21100917431193,0.0,
1760130049.3296242,207,-0.4958901098901099,1.4732967032967033,-128.64395604395605,-89.89312977099236,-58.62595419847328,0.0076335877862595,-1215.321100917431,266.0550458715596,-140.1834862385321,0.0,
1760130049.3403378,208,1.2433186813186814,0.1437362637362637,-128.5577142857143,-76.21374045801527,-60.58015267175573,0.0076335877862595,-1156.605504587156,195.59633027522932,-140.1834862385321,0.0,
1760130049.3615162,209,-0.5246373626373626,1.7607692307692309,-121.27028571428572,-87.93893129770993,-72.30534351145039,0.0076335877862595,-1097.8899082568807,266.0550458715596,-116.69724770642202,0.0,
1760130049.3931131,210,-0.574945054945055,1.5810989010989014,-123.13885714285716,-80.12213740458016,-66.44274809160305,0.0076335877862595,-1039.1743119266057,289.5412844036697,-116.69724770642202,0.0,
1760130049.4036758,211,-0.3449670329670329,1.7032747252747251,-106.5373186813187,-82.07633587786259,-72.30534351145039,0.0076335877862595,-980.4587155963302,266.0550458715596,-93.21100917431193,0.0,
1760130049.424329,212,-0.4312087912087912,1.617032967032967,-132.28767032967033,-74.25954198473282,-66.44274809160305,0.0076335877862595,-921.743119266055,266.0550458715596,-140.1834862385321,0.0,
1760130049.4552042,213,-0.4096483516483516,1.6601538461538463,-125.00742857142856,-72.30534351145039,-74.25954198473282,0.0076335877862595,-863.0275229357798,242.56880733944956,-93.21100917431193,0.0,
1760130049.4655993,214,-0.5318241758241758,1.80389010989011,-134.1706153846154,-80.12213740458016,-68.3969465648855,0.0076335877862595,-804.3119266055046,289.5412844036697,-116.69724770642202,0.0,
1760130049.4862964,215,-0.4383956043956044,1.80389010989011,-132.3164175824176,-85.98473282442748,-70.35114503816794,0.0076335877862595,-745.5963302752294,289.5412844036697,-116.69724770642202,0.0,
1760130049.4968753,216,-0.574945054945055,1.6026593406593408,-143.34817582417585,-74.25954198473282,-62.534351145038165,0.0076335877862595,-686.8807339449542,242.56880733944956,-116.69724770642202,0.0,
1760130049.518307,217,-0.5318241758241758,1.6960879120879122,-121.27747252747254,-78.16793893129771,-70.35114503816794,0.0076335877862595,-628.1651376146789,242.56880733944956,-163.6697247706422,0.0,
1760130049.5501564,218,-0.4024615384615385,1.6529670329670332,-128.55052747252748,-74.25954198473282,-66.44274809160305,0.0076335877862595,-569.4495412844037,266.0550458715596,-140.1834862385321,0.0,
1760130049.5608764,219,-0.5246373626373626,1.5882857142857143,-132.33797802197802,-74.25954198473282,-76.21374045801527,0.0076335877862595,-510.7339449541285,242.56880733944956,-116.69724770642202,0.0,
1760130049.5818574,220,-0.5533846153846155,1.6960879120879122,-119.48795604395605,-80.12213740458016,-64.4885496183206,0.0076335877862595,-452.0183486238532,266.0550458715596,-163.6697247706422,0.0,
1760130049.5925968,221,-0.6036923076923078,1.6242197802197802,-124.89243956043956,-74.25954198473282,-70.35114503816794,0.0076335877862595,-393.302752293578,266.0550458715596,-116.69724770642202,0.0,
1760130049.613901,222,-0.5030769230769231,1.7607692307692309,-123.07417582417582,-78.16793893129771,-72.30534351145039,0.0076335877862595,-334.5871559633028,219.08256880733944,-93.21100917431193,0.0,
1760130049.6457157,223,-0.574945054945055,1.5164175824175825,-132.3236043956044,-85.98473282442748,-70.35114503816794,0.0076335877862595,-275.8715596330275,266.0550458715596,-116.69724770642202,0.0,
1760130049.677336,224,-0.424021978021978,1.6242197802197802,-123.08854945054944,-85.98473282442748,-64.4885496183206,0.0076335877862595,-217.1559633027523,289.5412844036697,-140.1834862385321,0.0,
1760130049.6879811,225,-0.5893186813186814,1.5954725274725277,-123.15323076923076,-85.98473282442748,-68.3969465648855,0.0076335877862595,-158.44036697247705,242.56880733944956,-69.72477064220183,0.0,
1760130049.709199,226,-0.5174505494505495,1.7751428571428571,-128.6152087912088,-78.16793893129771,-64.4885496183206,0.0076335877862595,-99.72477064220185,289.5412844036697,-140.1834862385321,0.0,
1760130049.7199705,227,-0.5605714285714286,1.6529670329670332,-126.77538461538462,-80.12213740458016,-64.4885496183206,0.0076335877862595,-41.00917431192661,242.56880733944956,-116.69724770642202,0.0,
1760130049.7412994,228,-0.4671428571428571,1.7320219780219783,-117.64094505494506,-84.03053435114504,-68.3969465648855,0.0076335877862595,17.706422018348626,266.1467889908257,-116.69724770642202,0.0,
1760130049.75205,229,-0.4671428571428571,1.6385934065934065,-136.03918681318683,-84.03053435114504,-66.44274809160305,0.0076335877862595,76.42201834862385,242.6605504587156,-140.1834862385321,0.0,
1760130049.7732592,230,-0.424021978021978,-0.1437362637362637,-125.15835164835168,-85.98473282442748,-52.76335877862596,0.0076335877862595,135.1376146788991,242.6605504587156,-116.69724770642202,0.0,
1760130049.805013,231,-0.5246373626373626,1.6529670329670332,-123.2250989010989,-74.25954198473282,-64.4885496183206,0.0076335877862595,193.85321100917432,242.6605504587156,-116.69724770642202,0.0,
1760130049.836827,232,-0.424021978021978,1.7535824175824175,-117.61938461538462,-85.98473282442748,-64.4885496183206,0.0076335877862595,252.5688073394496,266.1467889908257,-140.1834862385321,0.0,
1760130049.847569,233,-0.4455824175824175,1.6457802197802198,-126.8113186813187,-85.98473282442748,-68.3969465648855,0.0076335877862595,311.2844036697248,289.6330275229358,-116.69724770642202,0.0,
1760130049.8688924,234,-0.5174505494505495,1.6673406593406594,-135.917010989011,-68.3969465648855,-68.3969465648855,0.0076335877862595,370.0,242.6605504587156,-93.21100917431193,0.0,
1760130049.8795934,235,-0.5677582417582419,1.6817142857142855,-121.22716483516484,-93.80152671755724,-72.30534351145039,0.0076335877862595,428.7155963302753,289.6330275229358,-140.1834862385321,0.0,
1760130049.9008691,236,-0.5893186813186814,1.7392087912087917,-128.5720879120879,-78.16793893129771,-70.35114503816794,0.0076335877862595,487.4311926605505,242.6605504587156,-140.1834862385321,0.0,
1760130049.9116304,237,1.3583076923076924,0.0359340659340659,-123.10292307692308,-78.16793893129771,-70.35114503816794,0.0076335877862595,546.1467889908257,242.6605504587156,-116.69724770642202,0.0,
1760130049.9329016,238,-0.4671428571428571,1.7607692307692309,-126.74663736263736,-89.89312977099236,-64.4885496183206,0.0076335877862595,604.862385321101,266.1467889908257,-140.1834862385321,0.0,
1760130049.9648445,239,-0.5102637362637363,1.7104615384615385,-121.2559120879121,-82.07633587786259,-62.534351145038165,0.0076335877862595,663.5779816513761,266.1467889908257,-140.1834862385321,0.0,
1760130049.9755988,240,-0.4958901098901099,1.7104615384615385,-119.32984615384616,-82.07633587786259,-74.25954198473282,0.0076335877862595,722.2935779816514,289.6330275229358,-93.21100917431193,0.0,
1760130049.9968088,241,-0.4096483516483516,1.8254505494505493,-134.16342857142857,-89.89312977099236,-62.534351145038165,0.0076335877862595,781.0091743119267,266.1467889908257,-116.69724770642202,0.0,
1760130050.0074673,242,-0.6108791208791209,1.6457802197802198,-146.9775164835165,-84.03053435114504,-76.21374045801527,0.0076335877862595,839.7247706422017,266.1467889908257,-116.69724770642202,0.0,
1760130050.0288026,243,-0.459956043956044,1.7104615384615385,-128.66551648351648,-78.16793893129771,-72.30534351145039,0.0076335877862595,898.440366972477,266.1467889908257,-69.72477064220183,0.0,
1760130050.049984,244,-0.4671428571428571,1.688901098901099,-121.21279120879122,-78.16793893129771,-58.62595419847328,0.0076335877862595,957.1559633027524,266.1467889908257,-69.72477064220183,0.0,
1760130050.060727,245,-0.4455824175824175,1.617032967032967,-128.73738461538463,-80.12213740458016,-70.35114503816794,0.0076335877862595,1015.8715596330276,242.6605504587156,-93.21100917431193,0.0,
1760130050.081987,246,-0.3521538461538461,1.7535824175824175,-123.07417582417582,-78.16793893129771,-78.16793893129771,0.0076335877862595,1074.5871559633026,289.6330275229358,-93.21100917431193,0.0,
1760130050.11385,247,-0.5174505494505495,1.7607692307692309,-141.4292967032967,-85.98473282442748,-60.58015267175573,0.0076335877862595,1133.302752293578,266.1467889908257,-116.69724770642202,0.0,
1760130050.1246414,248,-0.5030769230769231,1.7032747252747251,-126.83287912087911,-84.03053435114504,-56.67175572519084,0.0076335877862595,1192.0183486238532,242.6605504587156,-140.1834862385321,0.0,
1760130050.145823,249,-0.4815164835164835,1.8182637362637364,-135.9673186813187,-87.93893129770993,-58.62595419847328,0.0076335877862595,1250.7339449541284,266.1467889908257,-93.21100917431193,0.0,
1760130050.1565645,250,-0.459956043956044,1.5810989010989014,-137.74964835164835,-70.35114503816794,-58.62595419847328,0.0076335877862595,1309.4495412844035,266.1467889908257,-163.6697247706422,0.0,
1760130050.1778142,251,1.3583076923076924,0.0071868131868131,-121.24153846153848,-84.03053435114504,-74.25954198473282,0.0076335877862595,1368.1651376146788,266.1467889908257,-116.69724770642202,0.0,
1760130050.209578,252,-0.4743296703296704,1.7463956043956046,-128.60083516483516,-82.07633587786259,-68.3969465648855,0.0076335877862595,1426.880733944954,266.1467889908257,-46.23853211009175,0.0,
1760130050.2202778,253,-0.4815164835164835,1.537978021978022,-124.89243956043956,-82.07633587786259,-66.44274809160305,0.0076335877862595,1485.596330275229,313.1192660550459,-140.1834862385321,0.0,
1760130050.2417867,254,-0.5174505494505495,1.7607692307692309,-134.21373626373625,-76.21374045801527,-68.3969465648855,0.0076335877862595,1544.3119266055046,266.1467889908257,-116.69724770642202,0.0,
1760130050.2732432,255,-0.4312087912087912,1.5954725274725277,-124.98586813186812,-70.35114503816794,-74.25954198473282,0.0076335877862595,1603.02752293578,242.6605504587156,-116.69724770642202,0.0,
1760130050.305311,256,-0.539010989010989,1.6673406593406594,-130.44065934065935,-84.03053435114504,-78.16793893129771,0.0076335877862595,1661.7431192660551,266.1467889908257,-69.72477064220183,0.0,
1760130050.3159757,257,-0.4455824175824175,1.6529670329670332,-123.08136263736264,-95.7557251908397,-60.58015267175573,0.0076335877862595,1720.4587155963302,242.6605504587156,-116.69724770642202,0.0,
1760130050.326718,258,-0.4743296703296704,1.7176483516483516,-134.10593406593406,-72.30534351145039,-68.3969465648855,0.0076335877862595,1779.1743119266057,266.1467889908257,-116.69724770642202,0.0,
1760130050.3376937,259,-0.4383956043956044,1.631406593406593,-121.34215384615386,-84.03053435114504,-70.35114503816794,0.0076335877862595,1837.8899082568807,266.1467889908257,-93.21100917431193,0.0,
1760130050.3694494,260,-0.5246373626373626,1.7104615384615385,-126.78257142857144,-76.21374045801527,-64.4885496183206,0.0076335877862595,1896.605504587156,289.6330275229358,-140.1834862385321,0.0,
1760130050.380235,261,-0.4096483516483516,1.6529670329670332,-123.09573626373628,-87.93893129770993,-70.35114503816794,0.0076335877862595,1955.3211009174315,242.6605504587156,-140.1834862385321,0.0,
1760130050.4017105,262,-0.4958901098901099,1.7751428571428571,-119.36578021978022,-84.03053435114504,-64.4885496183206,0.0076335877862595,2014.0366972477063,242.6605504587156,-93.21100917431193,0.0,
1760130050.4125328,263,-0.4527692307692308,1.6385934065934065,-137.8287032967033,-84.03053435114504,-64.4885496183206,0.0076335877862595,2072.7522935779816,266.1467889908257,-116.69724770642202,0.0,
1760130050.433722,264,-0.4527692307692308,1.7607692307692309,-134.19217582417582,-82.07633587786259,-72.30534351145039,0.0076335877862595,2131.467889908257,242.6605504587156,-116.69724770642202,0.0,
1760130050.4652946,265,-0.4096483516483516,1.767956043956044,-124.92837362637364,-72.30534351145039,-76.21374045801527,0.0076335877862595,2190.183486238532,219.1743119266055,-140.1834862385321,0.0,
1760130050.476032,266,-0.5605714285714286,1.6242197802197802,-132.17268131868133,-74.25954198473282,-60.58015267175573,0.0076335877862595,2248.8990825688074,242.6605504587156,-116.69724770642202,0.0,
1760130050.4973752,267,-0.4312087912087912,1.6242197802197802,-128.6295824175824,-89.89312977099236,-62.534351145038165,0.0076335877862595,2307.6146788990827,266.1467889908257,-93.21100917431193,0.0,
1760130050.5081697,268,-0.3809010989010989,1.7392087912087917,-124.94993406593406,-87.93893129770993,-78.16793893129771,0.0076335877862595,2366.330275229358,219.1743119266055,-116.69724770642202,0.0,
1760130050.529536,269,-0.4527692307692308,1.609846153846154,-119.40171428571428,-72.30534351145039,-72.30534351145039,0.0076335877862595,2425.0458715596333,266.1467889908257,-140.1834862385321,0.0,
1760130050.5613198,270,-0.5102637362637363,1.6242197802197802,-132.3810989010989,-91.8473282442748,-62.534351145038165,0.0076335877862595,2483.761467889908,266.1467889908257,-93.21100917431193,0.0,
1760130050.5720673,271,-0.4455824175824175,1.7032747252747251,-117.5978241758242,-84.03053435114504,-76.21374045801527,0.0076335877862595,2542.477064220184,219.1743119266055,-116.69724770642202,0.0,
1760130050.5933356,272,-0.5246373626373626,1.5523516483516484,-132.3810989010989,-78.16793893129771,-76.21374045801527,0.0076335877862595,2601.192660550458,266.1467889908257,-163.6697247706422,0.0,
1760130050.625214,273,-0.5174505494505495,1.7104615384615385,-119.3514065934066,-82.07633587786259,-84.03053435114504,0.0076335877862595,2659.908256880734,289.6330275229358,-116.69724770642202,0.0,
1760130050.6358902,274,-0.5246373626373626,1.724835164835165,-124.97868131868132,-80.12213740458016,-64.4885496183206,0.0076335877862595,2718.623853211009,266.1467889908257,-116.69724770642202,0.0,
1760130050.657246,275,-0.5246373626373626,1.631406593406593,-113.86786813186814,-78.16793893129771,-66.44274809160305,0.0076335877862595,2777.3394495412845,336.605504587156,-116.69724770642202,0.0,
1760130050.6679015,276,-0.4096483516483516,1.7176483516483516,-137.7783956043956,-70.35114503816794,-78.16793893129771,0.0076335877862595,2836.05504587156,266.1467889908257,-116.69724770642202,0.0,
1760130050.689188,277,1.3654945054945056,0.0071868131868131,-134.07,-82.07633587786259,-60.58015267175573,0.0076335877862595,2894.770642201835,242.6605504587156,-140.1834862385321,0.0,
1760130050.72101,278,-0.4743296703296704,1.7535824175824175,-124.78463736263735,-78.16793893129771,-76.21374045801527,0.0076335877862595,2953.4862385321103,313.1192660550459,-116.69724770642202,0.0,
1760130050.7317455,279,-0.6180659340659341,1.6385934065934065,-124.89962637362638,-82.07633587786259,-60.58015267175573,0.0076335877862595,-3000.2752293577983,266.1467889908257,-140.1834862385321,0.0,
1760130050.753008,280,-0.5533846153846155,1.6745274725274726,-128.6152087912088,-82.07633587786259,-68.3969465648855,0.0076335877862595,-2941.559633027523,242.6605504587156,-116.69724770642202,0.0,
1760130050.7847064,281,-0.4527692307692308,1.5882857142857143,-132.25892307692308,-74.25954198473282,-66.44274809160305,0.0076335877862595,-2882.844036697248,242.6605504587156,-140.1834862385321,0.0,
1760130050.7953966,282,-0.4024615384615385,1.631406593406593,-123.1101098901099,-80.12213740458016,-62.534351145038165,0.0076335877862595,-2824.1284403669724,242.6605504587156,-93.21100917431193,0.0,
1760130050.8061008,283,-0.5605714285714286,1.688901098901099,-125.0218021978022,-84.03053435114504,-64.4885496183206,0.0076335877862595,-2765.412844036697,242.6605504587156,-93.21100917431193,0.0,
1760130050.816895,284,-0.4312087912087912,1.7320219780219783,-130.50534065934067,-76.21374045801527,-62.534351145038165,0.0076335877862595,-2706.697247706422,242.6605504587156,-93.21100917431193,0.0,
1760130050.8486822,285,-0.4815164835164835,1.7032747252747251,-128.59364835164834,-70.35114503816794,-54.7175572519084,0.0076335877862595,-2647.9816513761466,242.6605504587156,-46.23853211009175,0.0,
1760130050.8593948,286,-0.539010989010989,1.6745274725274726,-134.19217582417582,-85.98473282442748,-62.534351145038165,0.0076335877862595,-2589.266055045872,289.6330275229358,-116.69724770642202,0.0,
1760130050.8806171,287,-0.4958901098901099,1.7320219780219783,-130.3975384615385,-85.98473282442748,-58.62595419847328,0.0076335877862595,-2530.550458715596,242.6605504587156,-140.1834862385321,0.0,
1760130050.9122431,288,-0.4958901098901099,1.7607692307692309,-134.0771868131868,-66.44274809160305,-62.534351145038165,0.0076335877862595,-2471.834862385321,242.6605504587156,-163.6697247706422,0.0,
1760130050.9230597,289,-0.4815164835164835,1.7176483516483516,-121.3637142857143,-89.89312977099236,-72.30534351145039,0.0076335877862595,-2413.119266055046,289.6330275229358,-140.1834862385321,0.0,
1760130050.954826,290,-0.5677582417582419,1.767956043956044,-134.15624175824175,-84.03053435114504,-62.534351145038165,0.0076335877862595,-2354.4036697247707,266.1467889908257,-116.69724770642202,0.0,
1760130050.965383,291,-0.4743296703296704,1.6457802197802198,-132.2804835164835,-72.30534351145039,-66.44274809160305,0.0076335877862595,-2295.6880733944954,266.1467889908257,-116.69724770642202,0.0,
1760130050.9863236,292,-0.4527692307692308,1.7032747252747251,-134.04843956043956,-76.21374045801527,-62.534351145038165,0.0076335877862595,-2236.97247706422,219.1743119266055,-163.6697247706422,0.0,
1760130050.9971044,293,-0.4527692307692308,1.724835164835165,-121.2056043956044,-82.07633587786259,-66.44274809160305,0.0076335877862595,-2178.256880733945,289.6330275229358,-116.69724770642202,0.0,
1760130051.0183263,294,-0.3880879120879121,1.7823296703296705,-128.52178021978025,-85.98473282442748,-66.44274809160305,0.0076335877862595,-2119.5412844036696,195.6880733944954,-116.69724770642202,0.0,
1760130051.0500247,295,-0.5102637362637363,1.7032747252747251,-143.29786813186814,-74.25954198473282,-62.534351145038165,0.0076335877862595,-2060.8256880733943,313.1192660550459,-116.69724770642202,0.0,
1760130051.0607362,296,-0.3952747252747253,1.7032747252747251,-113.9038021978022,-76.21374045801527,-64.4885496183206,0.0076335877862595,-2002.110091743119,289.6330275229358,-116.69724770642202,0.0,
1760130051.0819824,297,-0.4168351648351648,1.6242197802197802,-128.6152087912088,-82.07633587786259,-62.534351145038165,0.0076335877862595,-1943.394495412844,289.6330275229358,-140.1834862385321,0.0,
1760130051.1138632,298,-0.6036923076923078,1.7032747252747251,-123.10292307692308,-82.07633587786259,-60.58015267175573,0.0076335877862595,-1884.6788990825687,242.6605504587156,-140.1834862385321,0.0,
1760130051.1246376,299,-0.5246373626373626,1.688901098901099,-126.75382417582418,-89.89312977099236,-66.44274809160305,0.0076335877862595,-1825.9633027522932,266.1467889908257,-140.1834862385321,0.0,
1760130051.145932,300,-0.5605714285714286,1.7463956043956046,-126.78975824175824,-82.07633587786259,-80.12213740458016,0.0076335877862595,-1767.2477064220182,242.6605504587156,-163.6697247706422,0.0,
1760130051.1566894,301,-0.5246373626373626,1.6673406593406594,-124.88525274725276,-80.12213740458016,-70.35114503816794,0.0076335877862595,-1708.5321100917429,266.1467889908257,-140.1834862385321,0.0,
1760130051.1779077,302,-0.5030769230769231,1.767956043956044,-112.01367032967032,-82.07633587786259,-64.4885496183206,0.0076335877862595,-1649.8165137614678,289.6330275229358,-69.72477064220183,0.0,
1760130051.2097256,303,-0.3880879120879121,1.724835164835165,-128.69426373626374,-72.30534351145039,-62.534351145038165,0.0076335877862595,-1591.1009174311926,219.1743119266055,-116.69724770642202,0.0,
1760130051.2204375,304,-0.4383956043956044,1.631406593406593,-126.80413186813188,-87.93893129770993,-70.35114503816794,0.0076335877862595,-1532.3853211009175,266.1467889908257,-93.21100917431193,0.0,
1760130051.241849,305,-0.4743296703296704,1.6529670329670332,-123.08854945054944,-80.12213740458016,-64.4885496183206,0.0076335877862595,-1473.6697247706422,242.6605504587156,-140.1834862385321,0.0,
1760130051.252457,306,-0.4168351648351648,1.6673406593406594,-143.21881318681318,-84.03053435114504,-66.44274809160305,0.0076335877862595,-1414.954128440367,266.1467889908257,-163.6697247706422,0.0,
1760130051.2738564,307,-0.4743296703296704,1.6385934065934065,-117.56907692307692,-80.12213740458016,-54.7175572519084,0.0076335877862595,-1356.2385321100917,266.1467889908257,-116.69724770642202,0.0,
1760130051.3057492,308,-0.5605714285714286,1.7463956043956046,-141.62334065934067,-76.21374045801527,-64.4885496183206,0.0076335877862595,-1297.5229357798164,266.1467889908257,-140.1834862385321,0.0,
1760130051.3164191,309,-0.4743296703296704,1.617032967032967,-132.25173626373626,-84.03053435114504,-64.4885496183206,0.0076335877862595,-1238.8073394495414,289.6330275229358,-69.72477064220183,0.0,
1760130051.3377745,310,-0.3305934065934066,1.6817142857142855,-124.9714945054945,-82.07633587786259,-62.534351145038165,0.0076335877862595,-1180.091743119266,313.1192660550459,-140.1834862385321,0.0,
1760130051.3697684,311,-0.5174505494505495,1.7320219780219783,-123.1676043956044,-78.16793893129771,-68.3969465648855,0.0076335877862595,-1121.3761467889908,242.6605504587156,-140.1834862385321,0.0,
1760130051.380448,312,-0.4958901098901099,1.7032747252747251,-134.15624175824175,-78.16793893129771,-72.30534351145039,0.0076335877862595,-1062.6605504587155,289.6330275229358,-163.6697247706422,0.0,
1760130051.3912024,313,-0.3377802197802198,1.7176483516483516,-132.33797802197802,-84.03053435114504,-62.534351145038165,0.0076335877862595,-1003.9449541284404,219.1743119266055,-93.21100917431193,0.0,
1760130051.401947,314,-0.424021978021978,1.7535824175824175,-135.9745054945055,-82.07633587786259,-74.25954198473282,0.0076335877862595,-945.2293577981652,219.1743119266055,-116.69724770642202,0.0,
1760130051.4335814,315,-0.4815164835164835,1.6673406593406594,-134.08437362637363,-85.98473282442748,-64.4885496183206,0.0076335877862595,-886.5137614678898,242.6605504587156,-140.1834862385321,0.0,
1760130051.4547646,316,-0.3593406593406594,1.6529670329670332,-124.914,-84.03053435114504,-62.534351145038165,0.0076335877862595,-827.7981651376147,242.6605504587156,-140.1834862385321,0.0,
1760130051.4654143,317,-0.459956043956044,1.7895164835164834,-132.25173626373626,-84.03053435114504,-78.16793893129771,0.0076335877862595,-769.0825688073394,266.1467889908257,-93.21100917431193,0.0,
1760130051.4867933,318,-0.3521538461538461,1.7032747252747251,-121.21279120879122,-80.12213740458016,-74.25954198473282,0.0076335877862595,-710.3669724770642,242.6605504587156,-93.21100917431193,0.0,
1760130051.5184228,319,-0.4455824175824175,1.688901098901099,-134.24967032967032,-85.98473282442748,-68.3969465648855,0.0076335877862595,-651.6513761467891,266.1467889908257,-93.21100917431193,0.0,
1760130051.5501907,320,-0.5605714285714286,1.5810989010989014,-124.87806593406592,-85.98473282442748,-70.35114503816794,0.0076335877862595,-592.9357798165138,242.6605504587156,-116.69724770642202,0.0,
1760130051.5607562,321,-0.4958901098901099,1.6601538461538463,-130.4119120879121,-87.93893129770993,-52.76335877862596,0.0076335877862595,-534.2201834862385,266.1467889908257,-140.1834862385321,0.0,
1760130051.5711806,322,-0.424021978021978,1.7535824175824175,-137.78558241758242,-82.07633587786259,-60.58015267175573,0.0076335877862595,-475.50458715596335,289.6330275229358,-140.1834862385321,0.0,
1760130051.59217,323,-0.5677582417582419,1.8182637362637364,-123.12448351648352,-89.89312977099236,-66.44274809160305,0.0076335877862595,-416.7889908256881,266.1467889908257,-140.1834862385321,0.0,
1760130051.623931,324,-0.5533846153846155,1.7823296703296705,-124.92837362637364,-84.03053435114504,-56.67175572519084,0.0076335877862595,-358.0733944954128,219.1743119266055,-116.69724770642202,0.0,
1760130051.6346912,325,-0.5030769230769231,1.6745274725274726,-124.8636923076923,-80.12213740458016,-76.21374045801527,0.0076335877862595,-299.35779816513764,266.1467889908257,-163.6697247706422,0.0,
1760130051.6558964,326,-0.3880879120879121,1.8182637362637364,-126.73945054945057,-78.16793893129771,-66.44274809160305,0.0076335877862595,-240.6422018348624,266.1467889908257,-163.6697247706422,0.0,
1760130051.6663735,327,-0.4743296703296704,1.5092307692307694,-123.16041758241758,-89.89312977099236,-70.35114503816794,0.0076335877862595,-181.92660550458717,266.1467889908257,-116.69724770642202,0.0,
1760130051.6873767,328,-0.5533846153846155,1.7104615384615385,-121.15529670329671,-87.93893129770993,-72.30534351145039,0.0076335877862595,-123.21100917431194,289.6330275229358,-116.69724770642202,0.0,
1760130051.719234,329,-0.5030769230769231,1.6601538461538463,-123.08854945054944,-80.12213740458016,-66.44274809160305,0.0076335877862595,-64.4954128440367,289.6330275229358,-140.1834862385321,0.0,
1760130051.7299836,330,-0.3880879120879121,1.6960879120879122,-128.5577142857143,-82.07633587786259,-66.44274809160305,0.0076335877862595,-5.779816513761468,242.6605504587156,-140.1834862385321,0.0,
1760130051.7512178,331,-0.5030769230769231,1.6673406593406594,-126.75382417582418,-80.12213740458016,-58.62595419847328,0.0076335877862595,52.93577981651376,266.23853211009174,-93.21100917431193,0.0,
1760130051.7618134,332,-0.5461978021978022,1.7463956043956046,-141.53709890109891,-80.12213740458016,-68.3969465648855,0.0076335877862595,111.651376146789,219.26605504587155,-93.21100917431193,0.0,
1760130051.783106,333,-0.5246373626373626,1.688901098901099,-124.98586813186812,-85.98473282442748,-68.3969465648855,0.0076335877862595,170.36697247706422,266.23853211009174,-116.69724770642202,0.0,
1760130051.814581,334,-0.4671428571428571,1.617032967032967,-128.5577142857143,-80.12213740458016,-64.4885496183206,0.0076335877862595,229.08256880733947,266.23853211009174,-140.1834862385321,0.0,
1760130051.825281,335,-0.5677582417582419,1.7104615384615385,-141.5442857142857,-76.21374045801527,-80.12213740458016,0.0076335877862595,287.7981651376147,242.75229357798165,-116.69724770642202,0.0,
1760130051.8465986,336,-0.5677582417582419,1.6960879120879122,-121.32059340659342,-85.98473282442748,-60.58015267175573,0.0076335877862595,346.51376146788994,266.23853211009174,-93.21100917431193,0.0,
1760130051.8574018,337,-0.4958901098901099,1.7320219780219783,-126.83287912087911,-76.21374045801527,-62.534351145038165,0.0076335877862595,405.2293577981652,242.75229357798165,-140.1834862385321,0.0,
1760130051.8788102,338,-0.4815164835164835,1.767956043956044,-128.63676923076923,-84.03053435114504,-64.4885496183206,0.0076335877862595,463.9449541284404,266.23853211009174,-116.69724770642202,0.0,
1760130051.9106164,339,-0.4312087912087912,1.7176483516483516,-132.38828571428573,-78.16793893129771,-70.35114503816794,0.0076335877862595,522.6605504587156,219.26605504587155,-140.1834862385321,0.0,
1760130051.9213235,340,-0.5605714285714286,1.8110769230769237,-121.16967032967034,-80.12213740458016,-64.4885496183206,0.0076335877862595,581.3761467889908,242.75229357798165,-116.69724770642202,0.0,
1760130051.9426825,341,-0.4096483516483516,1.7607692307692309,-130.44065934065935,-82.07633587786259,-56.67175572519084,0.0076335877862595,640.0917431192661,266.23853211009174,-140.1834862385321,0.0,
1760130051.9745429,342,-0.4887032967032967,1.7535824175824175,-126.75382417582418,-82.07633587786259,-60.58015267175573,0.0076335877862595,698.8073394495414,266.23853211009174,-116.69724770642202,0.0,
1760130051.985248,343,-0.4671428571428571,1.6673406593406594,-139.61103296703297,-82.07633587786259,-62.534351145038165,0.0076335877862595,757.5229357798165,219.26605504587155,-116.69724770642202,0.0,
1760130052.0065477,344,-0.5030769230769231,1.6601538461538463,-130.42628571428574,-70.35114503816794,-70.35114503816794,0.0076335877862595,816.2385321100917,266.23853211009174,-140.1834862385321,0.0,
1760130052.017247,345,-0.5893186813186814,1.6817142857142855,-132.3739120879121,-72.30534351145039,-64.4885496183206,0.0076335877862595,874.954128440367,289.72477064220186,-163.6697247706422,0.0,
1760130052.038581,346,-0.4743296703296704,1.767956043956044,-134.1706153846154,-80.12213740458016,-62.534351145038165,0.0076335877862595,933.669724770642,289.72477064220186,-140.1834862385321,0.0,
1760130052.07031,347,-0.5318241758241758,1.7535824175824175,-124.92837362637364,-80.12213740458016,-70.35114503816794,0.0076335877862595,992.3853211009174,266.23853211009174,-116.69724770642202,0.0,
1760130052.0810828,348,-0.5893186813186814,1.631406593406593,-134.13468131868132,-80.12213740458016,-64.4885496183206,0.0076335877862595,1051.1009174311926,242.75229357798165,-116.69724770642202,0.0,
1760130052.1023664,349,-0.5677582417582419,1.6457802197802198,-123.18197802197804,-76.21374045801527,-70.35114503816794,0.0076335877862595,1109.8165137614678,289.72477064220186,-116.69724770642202,0.0,
1760130052.1131032,350,-0.5605714285714286,1.7320219780219783,-137.79276923076924,-76.21374045801527,-70.35114503816794,0.0076335877862595,1168.532110091743,266.23853211009174,-93.21100917431193,0.0,
1760130052.134384,351,-0.4455824175824175,1.7392087912087917,-132.3236043956044,-87.93893129770993,-60.58015267175573,0.0076335877862595,1227.2477064220184,266.23853211009174,-140.1834862385321,0.0,
1760130052.1661556,352,-0.4815164835164835,1.7535824175824175,-115.65738461538464,-85.98473282442748,-66.44274809160305,0.0076335877862595,1285.9633027522937,266.23853211009174,-93.21100917431193,0.0,
1760130052.1768568,353,-0.4958901098901099,1.6817142857142855,-134.1274945054945,-85.98473282442748,-64.4885496183206,0.0076335877862595,1344.6788990825687,242.75229357798165,-140.1834862385321,0.0,
1760130052.198197,354,-0.5605714285714286,1.7032747252747251,-123.16041758241758,-76.21374045801527,-66.44274809160305,0.0076335877862595,1403.394495412844,266.23853211009174,-140.1834862385321,0.0,
1760130052.208934,355,-0.459956043956044,1.6960879120879122,-119.4663956043956,-87.93893129770993,-58.62595419847328,0.0076335877862595,1462.1100917431193,289.72477064220186,-46.23853211009175,0.0,
1760130052.2303002,356,-0.6036923076923078,1.6529670329670332,-130.40472527472528,-93.80152671755724,-58.62595419847328,0.0076335877862595,1520.8256880733943,242.75229357798165,-116.69724770642202,0.0,
1760130052.2618716,357,-0.4743296703296704,1.6242197802197802,-123.1172967032967,-82.07633587786259,-70.35114503816794,0.0076335877862595,1579.5412844036698,219.26605504587155,-93.21100917431193,0.0,
1760130052.272286,358,-0.5030769230769231,1.767956043956044,-124.9714945054945,-76.21374045801527,-58.62595419847328,0.0076335877862595,1638.2568807339449,242.75229357798165,-116.69724770642202,0.0,
1760130052.2935696,359,-0.6396263736263736,1.7895164835164834,-119.41608791208792,-80.12213740458016,-60.58015267175573,0.0076335877862595,1696.97247706422,242.75229357798165,-93.21100917431193,0.0,
1760130052.324938,360,-0.5246373626373626,1.7176483516483516,-126.71789010989012,-97.70992366412214,-70.35114503816794,0.0076335877862595,1755.6880733944954,266.23853211009174,-116.69724770642202,0.0,
1760130052.346178,361,-0.4383956043956044,1.724835164835165,-119.42327472527472,-78.16793893129771,-74.25954198473282,0.0076335877862595,1814.403669724771,219.26605504587155,-163.6697247706422,0.0,
1760130052.356809,362,-0.5030769230769231,1.688901098901099,-132.33079120879125,-76.21374045801527,-68.3969465648855,0.0076335877862595,1873.119266055046,242.75229357798165,-116.69724770642202,0.0,
1760130052.3776696,363,-0.5965054945054945,1.6601538461538463,-130.53408791208793,-74.25954198473282,-72.30534351145039,0.0076335877862595,1931.8348623853208,266.23853211009174,-116.69724770642202,0.0,
1760130052.3880982,364,-0.4096483516483516,1.724835164835165,-124.89243956043956,-74.25954198473282,-62.534351145038165,0.0076335877862595,1990.5504587155965,266.23853211009174,-140.1834862385321,0.0,
1760130052.4090197,365,-0.5102637362637363,1.7535824175824175,-128.5649010989011,-85.98473282442748,-76.21374045801527,0.0076335877862595,2049.266055045872,242.75229357798165,-69.72477064220183,0.0,
1760130052.4197698,366,-0.5605714285714286,1.7104615384615385,-145.20237362637363,-74.25954198473282,-56.67175572519084,0.0076335877862595,2107.9816513761466,266.23853211009174,-140.1834862385321,0.0,
1760130052.441032,367,-0.5102637362637363,1.7607692307692309,-117.4972087912088,-87.93893129770993,-72.30534351145039,0.0076335877862595,2166.697247706422,242.75229357798165,-116.69724770642202,0.0,
1760130052.4725354,368,-0.4455824175824175,1.6960879120879122,-123.08136263736264,-76.21374045801527,-64.4885496183206,0.0076335877862595,2225.412844036697,266.23853211009174,-116.69724770642202,0.0,
1760130052.4830906,369,-0.4958901098901099,1.7392087912087917,-121.19123076923078,-85.98473282442748,-64.4885496183206,0.0076335877862595,2284.1284403669724,242.75229357798165,-116.69724770642202,0.0,
1760130052.5040867,370,-0.4743296703296704,1.7895164835164834,-123.1172967032967,-72.30534351145039,-68.3969465648855,0.0076335877862595,2342.844036697248,289.72477064220186,-116.69724770642202,0.0,
1760130052.5358317,371,-0.4815164835164835,1.7751428571428571,-132.33079120879125,-85.98473282442748,-58.62595419847328,0.0076335877862595,2401.559633027523,289.72477064220186,-116.69724770642202,0.0,
1760130052.5465662,372,-0.5605714285714286,1.6673406593406594,-124.97868131868132,-87.93893129770993,-80.12213740458016,0.0076335877862595,2460.2752293577983,242.75229357798165,-93.21100917431193,0.0,
1760130052.5678554,373,-0.5461978021978022,1.7032747252747251,-132.20142857142858,-72.30534351145039,-60.58015267175573,0.0076335877862595,2518.990825688073,266.23853211009174,-116.69724770642202,0.0,
1760130052.599676,374,-0.4743296703296704,1.7535824175824175,-152.496989010989,-78.16793893129771,-76.21374045801527,0.0076335877862595,2577.706422018349,242.75229357798165,-116.69724770642202,0.0,
1760130052.6103508,375,-0.4743296703296704,1.7463956043956046,-115.83705494505496,-74.25954198473282,-64.4885496183206,0.0076335877862595,2636.422018348624,219.26605504587155,-140.1834862385321,0.0,
1760130052.631739,376,-0.5318241758241758,1.6385934065934065,-130.48378021978024,-87.93893129770993,-70.35114503816794,0.0076335877862595,2695.1376146789,266.23853211009174,-69.72477064220183,0.0,
1760130052.6424203,377,-0.5893186813186814,1.5882857142857143,-113.9038021978022,-82.07633587786259,-74.25954198473282,0.0076335877862595,2753.853211009174,219.26605504587155,-116.69724770642202,0.0,
1760130052.663821,378,-0.3880879120879121,1.7823296703296705,-134.05562637362638,-85.98473282442748,-72.30534351145039,0.0076335877862595,2812.568807339449,266.23853211009174,-140.1834862385321,0.0,
1760130052.6956494,379,-0.2946593406593407,1.7104615384615385,-121.29184615384617,-78.16793893129771,-64.4885496183206,0.0076335877862595,2871.2844036697247,266.23853211009174,-116.69724770642202,0.0,
1760130052.7063308,380,-0.4096483516483516,1.7823296703296705,-121.27028571428572,-85.98473282442748,-64.4885496183206,0.0076335877862595,2930.0,219.26605504587155,-116.69724770642202,0.0,
1760130052.7171447,381,-0.4024615384615385,1.6385934065934065,-132.3164175824176,-80.12213740458016,-66.44274809160305,0.0076335877862595,2988.7155963302757,266.23853211009174,-93.21100917431193,0.0,
1760130052.727909,382,-0.539010989010989,1.573912087912088,-128.52896703296705,-70.35114503816794,-66.44274809160305,0.0076335877862595,-2965.045871559633,242.75229357798165,-163.6697247706422,0.0,
1760130052.7596495,383,-0.539010989010989,1.6817142857142855,-126.83287912087911,-87.93893129770993,-60.58015267175573,0.0076335877862595,-2906.330275229357,336.69724770642205,-187.1559633027523,0.0,
1760130052.7915666,384,-0.5318241758241758,1.2073846153846155,-121.22716483516484,-84.03053435114504,-56.67175572519084,0.0076335877862595,-2847.6146788990823,54.86238532110092,-69.72477064220183,0.0,
1760130052.8232353,385,1.308,0.7905494505494507,-126.68195604395603,-76.21374045801527,-68.3969465648855,0.0076335877862595,-2788.8990825688074,383.66972477064223,-93.21100917431193,0.0,
1760130052.8339915,386,-0.5893186813186814,0.6827472527472528,-130.4119120879121,-85.98473282442748,-60.58015267175573,0.0076335877862595,-2730.183486238532,407.1559633027522,-69.72477064220183,0.0,
1760130052.8447118,387,1.422989010989011,0.1006153846153846,-134.1203076923077,-72.30534351145039,-70.35114503816794,0.0076335877862595,-2671.467889908257,148.80733944954127,-116.69724770642202,0.0,
1760130052.8555198,388,-0.424021978021978,1.8326373626373629,-115.758,-82.07633587786259,-66.44274809160305,0.0076335877862595,-2612.7522935779816,407.1559633027522,-140.1834862385321,0.0,
1760130052.887235,389,-0.5965054945054945,1.1355164835164837,-124.87087912087912,-85.98473282442748,-60.58015267175573,0.0076335877862595,-2554.0366972477063,266.23853211009174,-140.1834862385321,0.0,
1760130052.8979783,390,1.3439340659340662,0.309032967032967,-132.33797802197802,-82.07633587786259,-54.7175572519084,0.0076335877862595,-2495.321100917431,172.29357798165137,-140.1834862385321,0.0,
1760130052.9192708,391,1.3439340659340662,0.0,-132.25173626373626,-80.12213740458016,-70.35114503816794,0.0076335877862595,-2436.605504587156,289.72477064220186,-116.69724770642202,0.0,
1760130052.9511764,392,-0.5030769230769231,1.5020439560439562,-119.4592087912088,-70.35114503816794,-76.21374045801527,0.0076335877862595,-2377.8899082568805,266.23853211009174,-46.23853211009175,0.0,
1760130052.9618704,393,-0.459956043956044,1.8326373626373629,-130.46221978021978,-80.12213740458016,-70.35114503816794,0.0076335877862595,-2319.174311926605,219.26605504587155,-116.69724770642202,0.0,
1760130052.9726152,394,-0.4815164835164835,1.617032967032967,-124.99305494505494,-80.12213740458016,-68.3969465648855,0.0076335877862595,-2260.45871559633,289.72477064220186,-163.6697247706422,0.0,
1760130052.9835303,395,-0.4527692307692308,1.6457802197802198,-146.99907692307693,-85.98473282442748,-72.30534351145039,0.0076335877862595,-2201.7431192660547,289.72477064220186,-116.69724770642202,0.0,
1760130053.015384,396,-0.424021978021978,1.7032747252747251,-121.27747252747254,-91.8473282442748,-62.534351145038165,0.0076335877862595,-2143.02752293578,219.26605504587155,-163.6697247706422,0.0,
1760130053.0472314,397,-0.5174505494505495,1.7176483516483516,-123.0598021978022,-84.03053435114504,-60.58015267175573,0.0076335877862595,-2084.3119266055046,266.23853211009174,-163.6697247706422,0.0,
1760130053.0579853,398,-0.4168351648351648,1.7463956043956046,-134.11312087912088,-93.80152671755724,-74.25954198473282,0.0076335877862595,-2025.596330275229,195.77981651376143,-116.69724770642202,0.0,
1760130053.0789168,399,-0.5030769230769231,1.7320219780219783,-130.49815384615383,-91.8473282442748,-56.67175572519084,0.0076335877862595,-1966.880733944954,242.75229357798165,-116.69724770642202,0.0,
1760130053.1106174,400,-0.4958901098901099,1.6960879120879122,-134.15624175824175,-93.80152671755724,-66.44274809160305,0.0076335877862595,-1908.1651376146788,266.23853211009174,-116.69724770642202,0.0,
1760130053.1213243,401,-0.424021978021978,1.724835164835165,-126.8185054945055,-89.89312977099236,-56.67175572519084,0.0076335877862595,-1849.4495412844035,266.23853211009174,-140.1834862385321,0.0,
1760130053.132086,402,1.2720659340659342,0.0143736263736263,-123.06698901098902,-84.03053435114504,-70.35114503816794,0.0076335877862595,-1790.7339449541282,266.23853211009174,-163.6697247706422,0.0,
1760130053.1427808,403,-0.4455824175824175,1.688901098901099,-134.10593406593406,-89.89312977099236,-64.4885496183206,0.0076335877862595,-1732.018348623853,266.23853211009174,-140.1834862385321,0.0,
1760130053.1640637,404,-0.4527692307692308,1.6817142857142855,-123.09573626373628,-84.03053435114504,-62.534351145038165,0.0076335877862595,-1673.302752293578,266.23853211009174,-140.1834862385321,0.0,
1760130053.1957853,405,-0.3952747252747253,1.6385934065934065,-132.30204395604397,-85.98473282442748,-54.7175572519084,0.0076335877862595,-1614.5871559633026,289.72477064220186,-69.72477064220183,0.0,
1760130053.2064614,406,-0.5461978021978022,1.6529670329670332,-121.26309890109891,-76.21374045801527,-74.25954198473282,0.0076335877862595,-1555.8715596330276,195.77981651376143,-69.72477064220183,0.0,
1760130053.2278042,407,-0.3952747252747253,1.7032747252747251,-128.59364835164834,-74.25954198473282,-78.16793893129771,0.0076335877862595,-1497.1559633027523,289.72477064220186,-93.21100917431193,0.0,
1760130053.2593951,408,-0.5246373626373626,1.609846153846154,-150.76496703296704,-72.30534351145039,-62.534351145038165,0.0076335877862595,-1438.440366972477,219.26605504587155,-69.72477064220183,0.0,
1760130053.2702136,409,-0.574945054945055,1.7176483516483516,-128.67989010989012,-78.16793893129771,-62.534351145038165,0.0076335877862595,-1379.7247706422015,242.75229357798165,-116.69724770642202,0.0,
1760130053.2915542,410,-0.4527692307692308,1.617032967032967,-123.15323076923076,-84.03053435114504,-80.12213740458016,0.0076335877862595,-1321.0091743119267,266.23853211009174,-116.69724770642202,0.0,
1760130053.302246,411,-0.3737142857142858,1.617032967032967,-115.7508131868132,-87.93893129770993,-66.44274809160305,0.0076335877862595,-1262.2935779816514,219.26605504587155,-116.69724770642202,0.0,
1760130053.3236115,412,-0.4671428571428571,1.7895164835164834,-143.2691208791209,-80.12213740458016,-80.12213740458016,0.0076335877862595,-1203.577981651376,289.72477064220186,-140.1834862385321,0.0,
1760130053.3552816,413,-0.4887032967032967,1.4876703296703295,-130.455032967033,-82.07633587786259,-62.534351145038165,0.0076335877862595,-1144.8623853211009,242.75229357798165,-140.1834862385321,0.0,
1760130053.365996,414,-0.459956043956044,1.688901098901099,-121.24872527472527,-84.03053435114504,-74.25954198473282,0.0076335877862595,-1086.1467889908256,242.75229357798165,-116.69724770642202,0.0,
1760130053.387296,415,-0.4527692307692308,1.6745274725274726,-124.914,-82.07633587786259,-68.3969465648855,0.0076335877862595,-1027.4311926605503,289.72477064220186,-140.1834862385321,0.0,
1760130053.4190965,416,-0.539010989010989,1.6745274725274726,-128.57927472527473,-62.534351145038165,-64.4885496183206,0.0076335877862595,-968.7155963302752,266.23853211009174,-140.1834862385321,0.0,
1760130053.4295638,417,-0.5030769230769231,1.6960879120879122,-135.88826373626375,-84.03053435114504,-66.44274809160305,0.0076335877862595,-910.0,266.23853211009174,-116.69724770642202,0.0,
1760130053.4503713,418,-0.459956043956044,1.6529670329670332,-123.09573626373628,-80.12213740458016,-68.3969465648855,0.0076335877862595,-851.2844036697247,219.26605504587155,-140.1834862385321,0.0,
1760130053.4610686,419,-0.5030769230769231,1.7032747252747251,-123.0023076923077,-84.03053435114504,-64.4885496183206,0.0076335877862595,-792.5688073394494,266.23853211009174,-116.69724770642202,0.0,
1760130053.4822748,420,-0.6036923076923078,1.5954725274725277,-115.70769230769233,-76.21374045801527,-62.534351145038165,0.0076335877862595,-733.8532110091744,219.26605504587155,-93.21100917431193,0.0,
1760130053.493097,421,-0.424021978021978,1.7104615384615385,-139.7332087912088,-82.07633587786259,-66.44274809160305,0.0076335877862595,-675.1376146788991,242.75229357798165,-69.72477064220183,0.0,
1760130053.5249095,422,-0.459956043956044,1.617032967032967,-128.60802197802198,-89.89312977099236,-72.30534351145039,0.0076335877862595,-616.4220183486239,242.75229357798165,-93.21100917431193,0.0,
1760130053.556681,423,-0.6755604395604397,1.6817142857142855,-123.14604395604395,-80.12213740458016,-82.07633587786259,0.0076335877862595,-557.7064220183487,266.23853211009174,-116.69724770642202,0.0,
1760130053.5672448,424,-0.3880879120879121,1.8326373626373629,-119.38734065934068,-78.16793893129771,-72.30534351145039,0.0076335877862595,-498.9908256880734,266.23853211009174,-69.72477064220183,0.0,
1760130053.588363,425,-0.4887032967032967,1.6745274725274726,-110.23134065934066,-95.7557251908397,-70.35114503816794,0.0076335877862595,-440.2752293577982,289.72477064220186,-140.1834862385321,0.0,
