timestamp,packet_id,accel_x,accel_y,accel_z,gyro_x,gyro_y,gyro_z,mag_x,mag_y,mag_z,battery
1760282382.0559433,0,152.94257142857143,99.3505054945055,172.94347252747255,0.0,30.671755725190838,9.259541984732824,0.7339449541284404,-1079.633027522936,0.3669724770642202,0.0
1760282382.0671067,1,162.18481318681322,101.19032967032969,183.9824175824176,0.0,35.55725190839695,7.305343511450381,24.220183486238533,-1056.1467889908258,0.3669724770642202,0.0
1760282382.077602,2,154.78958241758244,95.67085714285716,174.7832967032967,0.0,40.44274809160305,13.16793893129771,24.220183486238533,-1056.1467889908258,0.3669724770642202,0.0
1760282382.0879772,3,152.94975824175825,106.7098021978022,174.7832967032967,0.0,45.32824427480916,9.259541984732824,0.7339449541284404,-1032.6605504587158,0.3669724770642202,0.0
1760282382.098248,4,151.03087912087912,101.19032967032969,182.14259340659342,0.0,50.213740458015266,11.213740458015268,24.220183486238533,-1079.633027522936,0.3669724770642202,0.0
1760282382.1087754,5,156.57909890109892,106.7098021978022,180.30276923076923,0.0,55.099236641221374,11.213740458015268,71.19266055045873,-1056.1467889908258,0.3669724770642202,0.0
1760282382.1192803,6,156.60065934065935,99.3505054945055,180.30276923076923,0.0,59.98473282442748,11.213740458015268,24.220183486238533,-1032.6605504587158,0.3669724770642202,0.0
1760282382.1298254,7,154.76083516483519,93.83103296703297,182.14259340659342,0.0,64.87022900763358,11.213740458015268,0.7339449541284404,-1079.633027522936,0.3669724770642202,0.0
1760282382.1403275,8,162.14169230769232,117.74874725274726,182.14259340659342,0.0,69.7557251908397,11.213740458015268,24.220183486238533,-1079.633027522936,0.3669724770642202,0.0
1760282382.151827,9,162.04107692307696,104.86997802197801,176.62312087912088,0.0,74.6412213740458,11.213740458015268,-22.752293577981654,-1103.2110091743118,0.3669724770642202,0.0
1760282382.1625836,10,147.4159120879121,104.86997802197801,176.62312087912088,0.0,79.52671755725191,9.259541984732824,0.7339449541284404,-1056.1467889908258,0.3669724770642202,0.0
1760282382.17358,11,151.09556043956044,104.86997802197801,180.30276923076923,0.0,84.41221374045801,9.259541984732824,0.7339449541284404,-1103.119266055046,0.3669724770642202,0.0
1760282382.1841002,12,160.2803076923077,104.86997802197801,183.9824175824176,0.0,89.29770992366412,9.259541984732824,0.7339449541284404,-1056.1467889908258,0.3669724770642202,0.0
1760282382.194574,13,162.0123296703297,99.3505054945055,182.14259340659342,0.0,94.18320610687023,11.213740458015268,47.706422018348626,-1079.633027522936,0.3669724770642202,0.0
1760282382.2065063,14,154.70334065934068,103.03015384615385,182.14259340659342,0.0,99.06870229007633,9.259541984732824,0.7339449541284404,-1103.119266055046,0.3669724770642202,0.0
1760282382.2386432,15,158.40454945054947,103.03015384615385,178.46294505494507,0.0,103.95419847328245,11.213740458015268,24.220183486238533,-1009.1743119266056,0.3669724770642202,0.0
1760282382.249055,16,0.0,154.78958241758244,97.51068131868132,195.4198473282443,0.0,108.83969465648855,134.77064220183485,0.7339449541284404,-1079.633027522936,0.0
1760282382.270309,17,-0.5821318681318681,1.6745274725274726,156.66534065934067,113.34351145038168,191.5114503816794,0.0,1366.788990825688,134.77064220183485,0.7339449541284404,0.0
1760282382.3018498,18,-0.5318241758241758,1.688901098901099,152.88507692307692,107.48091603053435,195.4198473282443,0.0,1425.5045871559632,134.77064220183485,24.220183486238533,0.0
1760282382.312236,19,-0.44558241758241757,1.7823296703296703,160.20843956043956,109.43511450381679,197.3740458015267,0.0,1484.2201834862385,87.79816513761467,0.7339449541284404,0.0
1760282382.3338413,20,-0.459956043956044,1.8038901098901101,160.1725054945055,113.34351145038168,195.4198473282443,0.0,1542.9357798165138,134.77064220183485,24.220183486238533,0.0
1760282382.344211,21,-0.5893186813186814,1.5882857142857145,156.70846153846153,101.61832061068702,193.46564885496184,0.0,1601.651376146789,111.28440366972477,71.19266055045873,0.0
1760282382.36685,22,-0.459956043956044,1.7895164835164834,143.69314285714285,105.52671755725191,185.64885496183206,0.0,1660.3669724770643,111.28440366972477,0.7339449541284404,0.0
1760282382.3977263,23,-0.48870329670329676,1.7535824175824177,141.88206593406593,109.43511450381679,193.46564885496184,0.0,1719.0825688073396,134.77064220183485,71.19266055045873,0.0
1760282382.409619,24,-0.43120879120879124,1.7895164835164834,151.10274725274726,111.38931297709924,201.2824427480916,0.0,1777.798165137615,134.77064220183485,47.706422018348626,0.0
1760282382.4302595,25,-0.4096483516483516,1.8110769230769233,156.615032967033,95.7557251908397,193.46564885496184,0.0,1836.5137614678902,111.28440366972477,-46.23853211009175,0.0
1760282382.4615881,26,-0.4743296703296704,1.7751428571428571,158.34705494505494,119.20610687022901,199.32824427480915,0.0,1895.2293577981652,134.77064220183485,0.7339449541284404,0.0
1760282382.471976,27,-0.539010989010989,1.7823296703296703,156.5719120879121,105.52671755725191,191.5114503816794,0.0,1953.9449541284405,134.77064220183485,0.7339449541284404,0.0
1760282382.493592,28,-0.4958901098901099,1.7320219780219783,158.35424175824176,111.38931297709924,181.74045801526717,0.0,2012.6605504587158,87.79816513761467,24.220183486238533,0.0
1760282382.503957,29,-0.5677582417582419,1.6960879120879122,149.2772967032967,115.29770992366412,193.46564885496184,0.0,2071.376146788991,111.28440366972477,71.19266055045873,0.0
1760282382.524621,30,-0.43839560439560443,1.7392087912087915,151.0668131868132,105.52671755725191,191.5114503816794,0.0,2130.091743119266,134.77064220183485,0.7339449541284404,0.0
1760282382.555785,31,-0.4815164835164835,1.6673406593406594,162.15606593406596,113.34351145038168,201.2824427480916,0.0,2188.8073394495414,134.77064220183485,0.7339449541284404,0.0
1760282382.5661652,32,-0.5893186813186814,1.8254505494505495,160.3378021978022,103.57251908396947,205.1908396946565,0.0,2247.5229357798166,111.28440366972477,24.220183486238533,0.0
1760282382.5869017,33,-0.539010989010989,1.7895164835164834,163.9743296703297,103.57251908396947,203.23664122137404,0.0,2306.238532110092,134.77064220183485,47.706422018348626,0.0
1760282382.6180336,34,-0.4815164835164835,1.7607692307692309,154.74646153846155,105.52671755725191,195.4198473282443,0.0,2364.954128440367,134.77064220183485,0.7339449541284404,0.0
1760282382.628464,35,-0.4096483516483516,1.7032747252747253,167.6324175824176,121.16030534351145,199.32824427480915,0.0,2423.6697247706425,111.28440366972477,0.7339449541284404,0.0
1760282382.6493595,36,-0.459956043956044,1.8182637362637364,167.61804395604395,105.52671755725191,201.2824427480916,0.0,2482.3853211009177,111.28440366972477,47.706422018348626,0.0
1760282382.659893,37,-0.4743296703296704,1.767956043956044,149.24854945054946,121.16030534351145,193.46564885496184,0.0,2541.1009174311926,111.28440366972477,47.706422018348626,0.0
1760282382.681055,38,-0.5533846153846155,1.6601538461538463,162.13450549450553,113.34351145038168,193.46564885496184,0.0,2599.816513761468,87.79816513761467,0.7339449541284404,0.0
1760282382.7128193,39,-0.539010989010989,1.5667252747252747,152.78446153846156,101.61832061068702,189.55725190839695,0.0,2658.532110091743,111.28440366972477,47.706422018348626,0.0
1760282382.7234228,40,-0.5821318681318681,1.7463956043956046,147.3584175824176,121.16030534351145,207.14503816793894,0.0,2717.2477064220184,134.77064220183485,0.7339449541284404,0.0
1760282382.7339761,41,-0.3593406593406594,1.7823296703296703,152.99287912087914,115.29770992366412,199.32824427480915,0.0,2775.963302752293,158.25688073394494,71.19266055045873,0.0
1760282382.765561,42,-0.5677582417582419,1.6314065934065933,156.5216043956044,121.16030534351145,201.2824427480916,0.0,2834.6788990825685,134.77064220183485,24.220183486238533,0.0
1760282382.7763135,43,-0.4958901098901099,1.7535824175824177,164.01745054945056,109.43511450381679,195.4198473282443,0.0,2893.3944954128438,111.28440366972477,0.7339449541284404,0.0
1760282382.797582,44,-0.459956043956044,1.8110769230769233,158.45485714285715,109.43511450381679,199.32824427480915,0.0,2952.110091743119,87.79816513761467,0.7339449541284404,0.0
1760282382.8084495,45,-0.539010989010989,1.7535824175824177,151.0668131868132,119.20610687022901,199.32824427480915,0.0,-3001.651376146789,111.28440366972477,24.220183486238533,0.0
1760282382.839996,46,-0.4958901098901099,1.6601538461538463,149.2126153846154,113.34351145038168,193.46564885496184,0.0,-2942.935779816514,111.28440366972477,0.7339449541284404,0.0
1760282382.8611596,47,-0.5461978021978022,1.7535824175824177,160.32342857142856,103.57251908396947,189.55725190839695,0.0,-2884.2201834862385,111.28440366972477,47.706422018348626,0.0
1760282382.8719406,48,-0.5030769230769231,1.7751428571428571,163.95995604395605,103.57251908396947,201.2824427480916,0.0,-2825.5045871559632,111.28440366972477,24.220183486238533,0.0
1760282382.893151,49,-0.574945054945055,1.7104615384615385,152.8203956043956,113.34351145038168,197.3740458015267,0.0,-2766.7889908256884,111.28440366972477,0.7339449541284404,0.0
1760282382.9247377,50,-0.5030769230769231,1.7751428571428571,162.15606593406596,121.16030534351145,199.32824427480915,0.0,-2708.073394495413,134.77064220183485,0.7339449541284404,0.0
1760282382.935245,51,-0.4527692307692308,1.6817142857142857,163.9312087912088,119.20610687022901,207.14503816793894,0.0,-2649.357798165138,111.28440366972477,0.7339449541284404,0.0
1760282382.9562452,52,-0.459956043956044,1.7967032967032968,165.82134065934068,109.43511450381679,191.5114503816794,0.0,-2590.6422018348626,111.28440366972477,47.706422018348626,0.0
1760282382.9668658,53,-0.6252527472527473,1.7104615384615385,154.6674065934066,119.20610687022901,187.6030534351145,0.0,-2531.9266055045873,158.25688073394494,24.220183486238533,0.0
1760282382.9881215,54,-0.44558241758241757,1.7032747252747253,152.98569230769232,105.52671755725191,203.23664122137404,0.0,-2473.211009174312,111.28440366972477,0.7339449541284404,0.0
1760282383.0197458,55,-0.5821318681318681,1.7535824175824177,156.615032967033,107.48091603053435,199.32824427480915,0.0,-2414.4954128440368,111.28440366972477,24.220183486238533,0.0
1760282383.03039,56,-0.539010989010989,1.7967032967032968,167.6970989010989,99.66412213740458,203.23664122137404,0.0,-2355.7798165137615,111.28440366972477,0.7339449541284404,0.0
1760282383.051715,57,-0.4527692307692308,1.7320219780219783,163.9887032967033,107.48091603053435,187.6030534351145,0.0,-2297.064220183486,134.77064220183485,0.7339449541284404,0.0
1760282383.0833697,58,-0.43839560439560443,1.7392087912087915,143.79375824175824,115.29770992366412,201.2824427480916,0.0,-2238.348623853211,111.28440366972477,71.19266055045873,0.0
1760282383.0941024,59,-0.5174505494505495,1.7967032967032968,156.64378021978024,119.20610687022901,189.55725190839695,0.0,-2179.6330275229357,134.77064220183485,0.7339449541284404,0.0
1760282383.1153526,60,-0.5893186813186814,1.8038901098901101,162.11294505494507,101.61832061068702,195.4198473282443,0.0,-2120.917431192661,111.28440366972477,24.220183486238533,0.0
1760282383.1257992,61,-0.539010989010989,1.7104615384615385,160.20843956043956,119.20610687022901,199.32824427480915,0.0,-2062.2018348623856,158.25688073394494,-22.752293577981654,0.0
1760282383.1465192,62,-0.4743296703296704,1.8110769230769233,156.70127472527474,95.7557251908397,189.55725190839695,0.0,-2003.48623853211,87.79816513761467,24.220183486238533,0.0
1760282383.177936,63,-0.539010989010989,1.767956043956044,141.86769230769232,109.43511450381679,189.55725190839695,0.0,-1944.770642201835,158.25688073394494,0.7339449541284404,0.0
1760282383.188589,64,-0.5821318681318681,1.7320219780219783,158.382989010989,111.38931297709924,199.32824427480915,0.0,-1886.0550458715597,158.25688073394494,47.706422018348626,0.0
1760282383.2097063,65,-0.46714285714285714,1.6385934065934065,160.2874945054945,109.43511450381679,193.46564885496184,0.0,-1827.3394495412845,134.77064220183485,24.220183486238533,0.0
1760282383.2412002,66,-0.5246373626373626,1.7823296703296703,151.04525274725276,115.29770992366412,205.1908396946565,0.0,-1768.6238532110092,134.77064220183485,0.7339449541284404,0.0
1760282383.2518682,67,-0.4527692307692308,1.767956043956044,154.7105274725275,115.29770992366412,199.32824427480915,0.0,-1709.908256880734,87.79816513761467,0.7339449541284404,0.0
1760282383.273034,68,-0.5318241758241758,1.7535824175824177,156.5719120879121,109.43511450381679,189.55725190839695,0.0,-1651.1926605504589,134.77064220183485,24.220183486238533,0.0
1760282383.2836494,69,-0.5246373626373626,1.8110769230769233,158.43329670329672,113.34351145038168,199.32824427480915,0.0,-1592.4770642201836,134.77064220183485,47.706422018348626,0.0
1760282383.3048465,70,-0.42402197802197805,1.7463956043956046,167.6899120879121,109.43511450381679,201.2824427480916,0.0,-1533.7614678899083,111.28440366972477,0.7339449541284404,0.0
1760282383.3361638,71,-0.4743296703296704,1.724835164835165,143.67876923076923,115.29770992366412,195.4198473282443,0.0,-1475.045871559633,134.77064220183485,24.220183486238533,0.0
1760282383.346699,72,-0.539010989010989,1.6601538461538463,156.65096703296703,115.29770992366412,197.3740458015267,0.0,-1416.3302752293578,134.77064220183485,0.7339449541284404,0.0
1760282383.3678794,73,-0.5102637362637363,1.7751428571428571,149.2772967032967,107.48091603053435,191.5114503816794,0.0,-1357.6146788990827,134.77064220183485,47.706422018348626,0.0
1760282383.3785367,74,-0.574945054945055,1.8254505494505495,160.22281318681317,115.29770992366412,209.09923664122138,0.0,-1298.8990825688074,158.25688073394494,24.220183486238533,0.0
1760282383.3998554,75,-0.5533846153846155,1.7176483516483516,151.074,109.43511450381679,191.5114503816794,0.0,-1240.1834862385322,158.25688073394494,-22.752293577981654,0.0
1760282383.4317374,76,-0.4958901098901099,1.7032747252747253,167.64679120879123,113.34351145038168,187.6030534351145,0.0,-1181.467889908257,87.79816513761467,24.220183486238533,0.0
1760282383.4423451,77,-0.42402197802197805,1.7895164835164834,160.31624175824174,105.52671755725191,187.6030534351145,0.0,-1122.7522935779816,158.25688073394494,24.220183486238533,0.0
1760282383.4636118,78,-0.5318241758241758,1.7463956043956046,162.1273186813187,123.1145038167939,189.55725190839695,0.0,-1064.0366972477063,158.25688073394494,24.220183486238533,0.0
1760282383.4953606,79,-0.48870329670329676,1.7607692307692309,149.24136263736264,127.02290076335878,191.5114503816794,0.0,-1005.3211009174312,158.25688073394494,47.706422018348626,0.0
1760282383.5061097,80,-0.539010989010989,1.6745274725274726,163.96714285714287,103.57251908396947,195.4198473282443,0.0,-946.605504587156,134.77064220183485,0.7339449541284404,0.0
1760282383.5273297,81,-0.5605714285714286,1.7463956043956046,154.73208791208793,107.48091603053435,191.5114503816794,0.0,-887.8899082568807,111.28440366972477,24.220183486238533,0.0
1760282383.5487754,82,-0.539010989010989,1.7895164835164834,149.41384615384615,113.34351145038168,187.6030534351145,0.0,-829.1743119266055,158.25688073394494,0.7339449541284404,0.0
1760282383.5596216,83,-0.5102637362637363,1.8326373626373627,154.7177142857143,107.48091603053435,193.46564885496184,0.0,-770.4587155963303,111.28440366972477,24.220183486238533,0.0
1760282383.5809073,84,-0.42402197802197805,1.688901098901099,154.70334065934068,121.16030534351145,195.4198473282443,0.0,-711.743119266055,158.25688073394494,47.706422018348626,0.0
1760282383.5915878,85,-0.43839560439560443,1.724835164835165,176.89621978021978,105.52671755725191,201.2824427480916,0.0,-653.0275229357799,158.25688073394494,24.220183486238533,0.0
1760282383.6130183,86,-0.5318241758241758,1.6314065934065933,154.73927472527475,109.43511450381679,193.46564885496184,0.0,-594.3119266055046,111.28440366972477,-46.23853211009175,0.0
1760282383.6448143,87,-0.5246373626373626,1.688901098901099,145.5114065934066,115.29770992366412,187.6030534351145,0.0,-535.5963302752293,158.25688073394494,0.7339449541284404,0.0
1760282383.6555557,88,-0.4743296703296704,1.6745274725274726,165.77103296703297,107.48091603053435,205.1908396946565,0.0,-476.8807339449541,158.25688073394494,-22.752293577981654,0.0
1760282383.6767719,89,-0.459956043956044,1.6673406593406594,143.83687912087913,113.34351145038168,189.55725190839695,0.0,-418.1651376146789,111.28440366972477,0.7339449541284404,0.0
1760282383.7086039,90,-0.6108791208791209,1.7176483516483516,163.95995604395605,115.29770992366412,195.4198473282443,0.0,-359.44954128440367,134.77064220183485,-22.752293577981654,0.0
1760282383.7193062,91,-0.5605714285714286,1.5810989010989014,158.46923076923076,109.43511450381679,201.2824427480916,0.0,-300.73394495412845,111.28440366972477,-22.752293577981654,0.0
1760282383.740436,92,-0.4958901098901099,1.8110769230769233,165.73509890109892,119.20610687022901,189.55725190839695,0.0,-242.01834862385323,111.28440366972477,0.7339449541284404,0.0
1760282383.7511628,93,-0.46714285714285714,1.767956043956044,162.1776263736264,119.20610687022901,191.5114503816794,0.0,-183.30275229357798,134.77064220183485,47.706422018348626,0.0
1760282383.7725568,94,-0.3809010989010989,1.8182637362637364,154.78239560439562,117.25190839694656,185.64885496183206,0.0,-124.58715596330275,111.28440366972477,47.706422018348626,0.0
1760282383.804386,95,-0.5893186813186814,1.724835164835165,145.48265934065935,127.02290076335878,197.3740458015267,0.0,-65.87155963302752,134.77064220183485,0.7339449541284404,0.0
1760282383.8151076,96,-0.6324395604395605,1.6601538461538463,162.1201318681319,109.43511450381679,189.55725190839695,0.0,-7.155963302752294,111.28440366972477,0.7339449541284404,0.0
1760282383.8364363,97,-0.5246373626373626,1.7607692307692309,163.88808791208794,113.34351145038168,199.32824427480915,0.0,51.559633027522935,134.8623853211009,24.220183486238533,0.0
1760282383.8682861,98,-0.539010989010989,1.609846153846154,156.58628571428574,109.43511450381679,203.23664122137404,0.0,110.27522935779817,134.8623853211009,-22.752293577981654,0.0
1760282383.8790362,99,-0.43120879120879124,1.8254505494505495,160.20125274725274,113.34351145038168,193.46564885496184,0.0,168.9908256880734,111.37614678899081,0.7339449541284404,0.0
1760282383.9001067,100,-0.46714285714285714,1.6242197802197802,154.84707692307694,107.48091603053435,199.32824427480915,0.0,227.70642201834863,134.8623853211009,24.220183486238533,0.0
1760282383.9105613,101,-0.5102637362637363,1.7895164835164834,165.69197802197803,111.38931297709924,193.46564885496184,0.0,286.42201834862385,134.8623853211009,24.220183486238533,0.0
1760282383.9311817,102,1.308,0.05030769230769231,152.84914285714285,113.34351145038168,195.4198473282443,0.0,345.13761467889907,87.88990825688073,0.7339449541284404,0.0
1760282383.9621897,103,-0.5605714285714286,1.7320219780219783,156.60065934065935,117.25190839694656,207.14503816793894,0.0,403.8532110091743,134.8623853211009,24.220183486238533,0.0
1760282383.9726636,104,-0.5533846153846155,1.8254505494505495,151.02369230769233,105.52671755725191,197.3740458015267,0.0,462.5688073394495,87.88990825688073,47.706422018348626,0.0
1760282383.9935172,105,-0.48870329670329676,1.8182637362637364,162.14169230769232,117.25190839694656,195.4198473282443,0.0,521.2844036697247,134.8623853211009,24.220183486238533,0.0
1760282384.0039601,106,-0.5318241758241758,1.7751428571428571,158.43329670329672,109.43511450381679,203.23664122137404,0.0,580.0,111.37614678899081,24.220183486238533,0.0
1760282384.0251658,107,-0.5461978021978022,1.7104615384615385,158.51953846153847,107.48091603053435,197.3740458015267,0.0,638.7155963302752,111.37614678899081,24.220183486238533,0.0
1760282384.0569386,108,-0.5533846153846155,1.6385934065934065,151.0668131868132,107.48091603053435,193.46564885496184,0.0,697.4311926605504,87.88990825688073,0.7339449541284404,0.0
1760282384.0677676,109,-0.5246373626373626,1.7535824175824177,162.11294505494507,105.52671755725191,197.3740458015267,0.0,756.1467889908257,134.8623853211009,0.7339449541284404,0.0
1760282384.0891228,110,-0.5174505494505495,1.6457802197802198,171.3983076923077,111.38931297709924,191.5114503816794,0.0,814.862385321101,134.8623853211009,-22.752293577981654,0.0
1760282384.1209364,111,-0.35215384615384615,1.767956043956044,158.46204395604397,117.25190839694656,195.4198473282443,0.0,873.5779816513763,111.37614678899081,-22.752293577981654,0.0
1760282384.1315982,112,-0.42402197802197805,1.6960879120879122,180.47525274725274,103.57251908396947,203.23664122137404,0.0,932.2935779816513,64.40366972477064,47.706422018348626,0.0
1760282384.1528745,113,-0.6108791208791209,1.688901098901099,162.18481318681322,111.38931297709924,193.46564885496184,0.0,991.0091743119265,134.8623853211009,47.706422018348626,0.0
1760282384.163611,114,-0.44558241758241757,1.6242197802197802,165.69916483516485,117.25190839694656,191.5114503816794,0.0,1049.7247706422017,181.8348623853211,0.7339449541284404,0.0
1760282384.1848874,115,1.308,0.04312087912087912,151.1243076923077,107.48091603053435,193.46564885496184,0.0,1108.440366972477,111.37614678899081,-22.752293577981654,0.0
1760282384.21686,116,-0.5821318681318681,1.7320219780219783,165.81415384615386,97.70992366412214,185.64885496183206,0.0,1167.1559633027523,134.8623853211009,0.7339449541284404,0.0
1760282384.2276332,117,-0.5030769230769231,1.8038901098901101,162.0626373626374,111.38931297709924,193.46564885496184,0.0,1225.8715596330273,87.88990825688073,24.220183486238533,0.0
1760282384.2489672,118,-0.5821318681318681,1.767956043956044,165.80696703296704,103.57251908396947,195.4198473282443,0.0,1284.5871559633026,111.37614678899081,-22.752293577981654,0.0
1760282384.2598443,119,-0.5318241758241758,1.6745274725274726,140.0566153846154,117.25190839694656,185.64885496183206,0.0,1343.302752293578,134.8623853211009,0.7339449541284404,0.0
1760282384.2811332,120,-0.44558241758241757,1.8038901098901101,156.50723076923077,109.43511450381679,191.5114503816794,0.0,1402.0183486238532,111.37614678899081,71.19266055045873,0.0
1760282384.291832,121,-0.41683516483516486,1.7967032967032968,169.40037362637364,115.29770992366412,185.64885496183206,0.0,1460.7339449541284,111.37614678899081,24.220183486238533,0.0
1760282384.3131678,122,-0.4815164835164835,1.8326373626373627,152.8635164835165,115.29770992366412,185.64885496183206,0.0,1519.4495412844037,181.8348623853211,24.220183486238533,0.0
1760282384.3448415,123,-0.5533846153846155,1.8182637362637364,163.95995604395605,113.34351145038168,195.4198473282443,0.0,1578.1651376146788,87.88990825688073,-22.752293577981654,0.0
1760282384.3555455,124,-0.5533846153846155,1.7392087912087915,147.40872527472527,111.38931297709924,189.55725190839695,0.0,1636.8807339449543,134.8623853211009,71.19266055045873,0.0
1760282384.376881,125,-0.5461978021978022,1.6817142857142857,154.69615384615386,107.48091603053435,183.6946564885496,0.0,1695.5963302752295,158.348623853211,47.706422018348626,0.0
1760282384.4084747,126,-0.6899340659340659,1.6960879120879122,158.51953846153847,103.57251908396947,185.64885496183206,0.0,1754.3119266055048,158.348623853211,24.220183486238533,0.0
1760282384.4403443,127,-0.5605714285714286,1.6745274725274726,156.59347252747253,105.52671755725191,187.6030534351145,0.0,1813.0275229357799,111.37614678899081,-22.752293577981654,0.0
1760282384.451092,128,-0.5605714285714286,1.7967032967032968,156.6869010989011,115.29770992366412,193.46564885496184,0.0,1871.7431192660551,111.37614678899081,24.220183486238533,0.0
1760282384.472466,129,-0.5174505494505495,1.8254505494505495,154.6674065934066,117.25190839694656,181.74045801526717,0.0,1930.4587155963304,134.8623853211009,0.7339449541284404,0.0
1760282384.483164,130,-0.3593406593406594,1.7032747252747253,160.21562637362638,117.25190839694656,191.5114503816794,0.0,1989.1743119266057,158.348623853211,0.7339449541284404,0.0
1760282384.5044665,131,-0.43839560439560443,1.7104615384615385,154.85426373626376,103.57251908396947,193.46564885496184,0.0,2047.889908256881,111.37614678899081,47.706422018348626,0.0
1760282384.5151196,132,-0.4958901098901099,1.8110769230769233,143.6572087912088,113.34351145038168,191.5114503816794,0.0,2106.6055045871562,158.348623853211,-22.752293577981654,0.0
1760282384.5364716,133,-0.5605714285714286,1.8326373626373627,162.13450549450553,119.20610687022901,181.74045801526717,0.0,2165.3211009174315,134.8623853211009,47.706422018348626,0.0
1760282384.568283,134,-0.42402197802197805,1.7392087912087915,149.2126153846154,109.43511450381679,189.55725190839695,0.0,2224.036697247707,134.8623853211009,47.706422018348626,0.0
1760282384.5790324,135,-0.46714285714285714,1.7607692307692309,160.24437362637363,117.25190839694656,201.2824427480916,0.0,2282.7522935779816,134.8623853211009,47.706422018348626,0.0
1760282384.6003828,136,-0.459956043956044,1.6385934065934065,162.04826373626375,113.34351145038168,197.3740458015267,0.0,2341.467889908257,158.348623853211,47.706422018348626,0.0
1760282384.6218188,137,-0.5893186813186814,1.8254505494505495,156.54316483516484,121.16030534351145,193.46564885496184,0.0,2400.183486238532,111.37614678899081,24.220183486238533,0.0
1760282384.632656,138,-0.6396263736263736,1.7823296703296703,162.14169230769232,109.43511450381679,193.46564885496184,0.0,2458.8990825688074,134.8623853211009,0.7339449541284404,0.0
1760282384.6644368,139,-0.4958901098901099,1.7320219780219783,156.59347252747253,105.52671755725191,189.55725190839695,0.0,2517.6146788990823,87.88990825688073,24.220183486238533,0.0
1760282384.675181,140,-0.5605714285714286,1.6601538461538463,151.14586813186816,127.02290076335878,185.64885496183206,0.0,2576.3302752293575,134.8623853211009,0.7339449541284404,0.0
1760282384.696109,141,-0.5605714285714286,1.724835164835165,158.46923076923076,119.20610687022901,209.09923664122138,0.0,2635.045871559633,158.348623853211,47.706422018348626,0.0
1760282384.7279065,142,-0.5030769230769231,1.7967032967032968,160.27312087912088,125.06870229007633,185.64885496183206,0.0,2693.761467889908,111.37614678899081,-22.752293577981654,0.0
1760282384.7386801,143,-0.5533846153846155,1.7104615384615385,151.15305494505495,117.25190839694656,201.2824427480916,0.0,2752.4770642201834,158.348623853211,24.220183486238533,0.0
1760282384.7598865,144,-0.5030769230769231,1.6960879120879122,152.94257142857143,111.38931297709924,191.5114503816794,0.0,2811.1926605504586,111.37614678899081,-22.752293577981654,0.0
1760282384.7704768,145,-0.4743296703296704,1.6385934065934065,152.9353846153846,111.38931297709924,183.6946564885496,0.0,2869.908256880734,134.8623853211009,24.220183486238533,0.0
1760282384.791524,146,-0.5821318681318681,1.5810989010989014,162.05545054945057,107.48091603053435,199.32824427480915,0.0,2928.623853211009,158.348623853211,-22.752293577981654,0.0
1760282384.8127882,147,-0.5461978021978022,1.6673406593406594,152.92819780219781,111.38931297709924,199.32824427480915,0.0,2987.3394495412845,111.37614678899081,24.220183486238533,0.0
1760282384.8234725,148,-0.6108791208791209,1.724835164835165,165.79259340659343,111.38931297709924,201.2824427480916,0.0,-2966.422018348624,111.37614678899081,24.220183486238533,0.0
1760282384.8448238,149,-0.5318241758241758,1.6457802197802198,156.48567032967034,109.43511450381679,193.46564885496184,0.0,-2907.706422018349,158.348623853211,71.19266055045873,0.0
1760282384.8768246,150,-0.6468131868131869,1.7032747252747253,158.45485714285715,111.38931297709924,199.32824427480915,0.0,-2848.9908256880735,134.8623853211009,0.7339449541284404,0.0
1760282384.8875673,151,-0.5030769230769231,1.724835164835165,165.7422857142857,111.38931297709924,193.46564885496184,0.0,-2790.2752293577983,158.348623853211,24.220183486238533,0.0
1760282384.908917,152,-0.539010989010989,1.7535824175824177,149.20542857142857,107.48091603053435,193.46564885496184,0.0,-2731.559633027523,64.40366972477064,24.220183486238533,0.0
1760282384.9196553,153,-0.5246373626373626,1.8038901098901101,143.74345054945056,113.34351145038168,199.32824427480915,0.0,-2672.8440366972477,111.37614678899081,0.7339449541284404,0.0
1760282384.9405715,154,-0.5030769230769231,1.7320219780219783,149.1551208791209,103.57251908396947,193.46564885496184,0.0,-2614.1284403669724,158.348623853211,0.7339449541284404,0.0
1760282384.9715574,155,-0.48870329670329676,1.7392087912087915,151.09556043956044,119.20610687022901,197.3740458015267,0.0,-2555.412844036697,111.37614678899081,47.706422018348626,0.0
1760282384.9819448,156,-0.5246373626373626,1.6601538461538463,162.0626373626374,105.52671755725191,193.46564885496184,0.0,-2496.6972477064223,158.348623853211,71.19266055045873,0.0
1760282385.0028613,157,-0.539010989010989,1.8254505494505495,152.92819780219781,111.38931297709924,195.4198473282443,0.0,-2437.981651376147,111.37614678899081,24.220183486238533,0.0
1760282385.0345519,158,-0.4815164835164835,1.7320219780219783,160.1725054945055,109.43511450381679,193.46564885496184,0.0,-2379.266055045872,134.8623853211009,47.706422018348626,0.0
1760282385.0452304,159,-0.4024615384615385,1.724835164835165,165.73509890109892,107.48091603053435,195.4198473282443,0.0,-2320.5504587155965,111.37614678899081,0.7339449541284404,0.0
1760282385.0665398,160,-0.5821318681318681,1.724835164835165,160.20125274725274,119.20610687022901,195.4198473282443,0.0,-2261.8348623853212,158.348623853211,0.7339449541284404,0.0
1760282385.0982869,161,-0.5030769230769231,1.6817142857142857,147.2003076923077,123.1145038167939,183.6946564885496,0.0,-2203.119266055046,134.8623853211009,24.220183486238533,0.0
1760282385.1089785,162,-0.4743296703296704,1.7463956043956046,162.14169230769232,119.20610687022901,189.55725190839695,0.0,-2144.4036697247707,111.37614678899081,24.220183486238533,0.0
1760282385.1302316,163,1.228945054945055,0.014373626373626375,152.94975824175825,107.48091603053435,187.6030534351145,0.0,-2085.6880733944954,134.8623853211009,24.220183486238533,0.0
1760282385.1409848,164,-0.539010989010989,1.8182637362637364,156.59347252747253,107.48091603053435,187.6030534351145,0.0,-2026.9724770642204,134.8623853211009,0.7339449541284404,0.0
1760282385.1624732,165,-0.5174505494505495,1.767956043956044,164.02463736263738,115.29770992366412,191.5114503816794,0.0,-1968.256880733945,158.348623853211,24.220183486238533,0.0
1760282385.1942077,166,-0.4815164835164835,1.7463956043956046,152.8132087912088,117.25190839694656,193.46564885496184,0.0,-1909.5412844036698,111.37614678899081,-46.23853211009175,0.0
1760282385.2048755,167,-0.5605714285714286,1.6385934065934065,163.95276923076926,119.20610687022901,189.55725190839695,0.0,-1850.8256880733945,111.37614678899081,0.7339449541284404,0.0
1760282385.226149,168,-0.48870329670329676,1.7463956043956046,156.6294065934066,103.57251908396947,199.32824427480915,0.0,-1792.1100917431193,111.37614678899081,0.7339449541284404,0.0
1760282385.2473168,169,-0.5102637362637363,1.7751428571428571,152.89226373626374,123.1145038167939,187.6030534351145,0.0,-1733.3944954128442,134.8623853211009,0.7339449541284404,0.0
1760282385.258129,170,-0.5174505494505495,1.7967032967032968,151.08837362637362,101.61832061068702,189.55725190839695,0.0,-1674.678899082569,111.37614678899081,-22.752293577981654,0.0
1760282385.2899518,171,-0.5174505494505495,1.7463956043956046,158.39736263736265,113.34351145038168,189.55725190839695,0.0,-1615.9633027522937,134.8623853211009,-22.752293577981654,0.0
1760282385.3007736,172,-0.5461978021978022,1.7895164835164834,156.59347252747253,119.20610687022901,201.2824427480916,0.0,-1557.2477064220184,134.8623853211009,24.220183486238533,0.0
1760282385.3114805,173,1.3654945054945056,0.05030769230769231,158.4836043956044,119.20610687022901,197.3740458015267,0.0,-1498.532110091743,181.8348623853211,24.220183486238533,0.0
1760282385.3430893,174,-0.4527692307692308,1.7176483516483516,156.5719120879121,117.25190839694656,193.46564885496184,0.0,-1439.8165137614678,205.3211009174312,47.706422018348626,0.0
1760282385.35382,175,-0.6036923076923078,1.7320219780219783,162.0698241758242,109.43511450381679,185.64885496183206,0.0,-1381.1009174311928,111.37614678899081,0.7339449541284404,0.0
1760282385.3750563,176,-0.6971208791208792,1.6745274725274726,152.83476923076924,117.25190839694656,197.3740458015267,0.0,-1322.3853211009175,111.37614678899081,47.706422018348626,0.0
1760282385.3856716,177,-0.5174505494505495,1.6745274725274726,160.21562637362638,101.61832061068702,195.4198473282443,0.0,-1263.6697247706422,111.37614678899081,0.7339449541284404,0.0
1760282385.4382346,178,-0.459956043956044,1.8038901098901101,162.16325274725278,105.52671755725191,197.3740458015267,0.0,-1204.954128440367,134.8623853211009,-22.752293577981654,0.0
1760282385.44893,179,-0.4815164835164835,1.6673406593406594,154.81114285714287,109.43511450381679,195.4198473282443,0.0,-1146.2385321100917,111.37614678899081,0.7339449541284404,0.0
1760282385.4596512,180,-0.5174505494505495,1.7104615384615385,169.5584835164835,107.48091603053435,199.32824427480915,0.0,-1087.5229357798166,134.8623853211009,0.7339449541284404,0.0
1760282385.4703786,181,-0.4958901098901099,1.8038901098901101,161.99076923076925,113.34351145038168,195.4198473282443,0.0,-1028.8073394495414,111.37614678899081,47.706422018348626,0.0
1760282385.5021966,182,-0.4958901098901099,1.7607692307692309,145.63358241758243,123.1145038167939,185.64885496183206,0.0,-970.0917431192661,87.88990825688073,0.7339449541284404,0.0
1760282385.5128655,183,-0.4958901098901099,1.8326373626373627,154.83989010989012,107.48091603053435,185.64885496183206,0.0,-911.3761467889908,134.8623853211009,0.7339449541284404,0.0
1760282385.5341074,184,-0.4743296703296704,1.7607692307692309,158.50516483516483,107.48091603053435,187.6030534351145,0.0,-852.6605504587156,64.40366972477064,-22.752293577981654,0.0
1760282385.5447528,185,-0.5030769230769231,1.7823296703296703,156.5719120879121,105.52671755725191,197.3740458015267,0.0,-793.9449541284404,111.37614678899081,47.706422018348626,0.0
1760282385.5660846,186,-0.42402197802197805,1.767956043956044,154.68178021978022,107.48091603053435,197.3740458015267,0.0,-735.2293577981651,158.348623853211,47.706422018348626,0.0
1760282385.5978577,187,-0.5821318681318681,1.6745274725274726,154.68896703296704,119.20610687022901,183.6946564885496,0.0,-676.5137614678899,134.8623853211009,24.220183486238533,0.0
1760282385.608653,188,-0.48870329670329676,1.7392087912087915,141.83894505494507,113.34351145038168,197.3740458015267,0.0,-617.7981651376147,158.348623853211,0.7339449541284404,0.0
1760282385.6299036,189,-0.6324395604395605,1.7823296703296703,152.90663736263735,107.48091603053435,189.55725190839695,0.0,-559.0825688073394,111.37614678899081,47.706422018348626,0.0
1760282385.6617517,190,-0.4958901098901099,1.609846153846154,165.80696703296704,123.1145038167939,201.2824427480916,0.0,-500.3669724770642,134.8623853211009,0.7339449541284404,0.0
1760282385.6723495,191,-0.5102637362637363,1.7032747252747253,165.81415384615386,111.38931297709924,191.5114503816794,0.0,-441.65137614678895,111.37614678899081,-22.752293577981654,0.0
1760282385.6930356,192,-0.5533846153846155,1.6745274725274726,169.52973626373625,121.16030534351145,205.1908396946565,0.0,-382.93577981651373,111.37614678899081,24.220183486238533,0.0
1760282385.70356,193,-0.43839560439560443,1.7032747252747253,160.19406593406592,105.52671755725191,189.55725190839695,0.0,-324.2201834862385,158.348623853211,47.706422018348626,0.0
1760282385.7247415,194,-0.4024615384615385,1.6385934065934065,169.47224175824175,105.52671755725191,187.6030534351145,0.0,-265.50458715596335,134.8623853211009,47.706422018348626,0.0
1760282385.7565627,195,-0.5965054945054945,1.7895164835164834,154.76083516483519,109.43511450381679,199.32824427480915,0.0,-206.7889908256881,111.37614678899081,-22.752293577981654,0.0
1760282385.7672927,196,-0.6252527472527473,1.6745274725274726,158.39736263736265,121.16030534351145,197.3740458015267,0.0,-148.07339449541283,111.37614678899081,0.7339449541284404,0.0
1760282385.7898297,197,-0.539010989010989,1.7967032967032968,154.7105274725275,109.43511450381679,197.3740458015267,0.0,-89.35779816513761,134.8623853211009,0.7339449541284404,0.0
1760282385.8002763,198,-0.6036923076923078,1.7104615384615385,160.27312087912088,111.38931297709924,195.4198473282443,0.0,-30.642201834862387,134.8623853211009,24.220183486238533,0.0
1760282385.821533,199,-0.5533846153846155,1.7823296703296703,165.62010989010992,103.57251908396947,193.46564885496184,0.0,28.073394495412845,111.4678899082569,-22.752293577981654,0.0
1760282385.8533258,200,-0.4958901098901099,1.7176483516483516,154.75364835164837,111.38931297709924,195.4198473282443,0.0,86.78899082568807,111.4678899082569,24.220183486238533,0.0
1760282385.8640482,201,-0.39527472527472535,1.7535824175824177,156.54316483516484,115.29770992366412,197.3740458015267,0.0,145.5045871559633,111.4678899082569,0.7339449541284404,0.0
1760282385.8854513,202,-0.5821318681318681,1.6314065934065933,158.4261098901099,113.34351145038168,197.3740458015267,0.0,204.22018348623854,158.44036697247705,24.220183486238533,0.0
1760282385.9171784,203,-0.5318241758241758,1.7392087912087915,145.46109890109892,121.16030534351145,191.5114503816794,0.0,262.9357798165138,181.92660550458714,0.7339449541284404,0.0
1760282385.9278808,204,-0.4096483516483516,1.7104615384615385,164.02463736263738,107.48091603053435,197.3740458015267,0.0,321.651376146789,134.954128440367,-22.752293577981654,0.0
1760282385.9491231,205,-0.5677582417582419,1.6745274725274726,156.6294065934066,119.20610687022901,195.4198473282443,0.0,380.3669724770642,111.4678899082569,24.220183486238533,0.0
1760282385.959844,206,-0.4527692307692308,1.7176483516483516,149.23417582417582,105.52671755725191,191.5114503816794,0.0,439.08256880733944,87.98165137614679,-22.752293577981654,0.0
1760282385.9811769,207,-0.43120879120879124,1.7823296703296703,169.40037362637364,115.29770992366412,197.3740458015267,0.0,497.79816513761466,158.44036697247705,-22.752293577981654,0.0
1760282386.012985,208,-0.5174505494505495,1.7392087912087915,156.48567032967034,123.1145038167939,199.32824427480915,0.0,556.5137614678899,158.44036697247705,0.7339449541284404,0.0
1760282386.0236843,209,-0.5174505494505495,1.7463956043956046,165.74947252747253,103.57251908396947,193.46564885496184,0.0,615.2293577981651,134.954128440367,0.7339449541284404,0.0
1760282386.0449858,210,-0.539010989010989,1.7967032967032968,173.20219780219782,115.29770992366412,205.1908396946565,0.0,673.9449541284404,111.4678899082569,24.220183486238533,0.0
1760282386.0663445,211,-0.4743296703296704,1.688901098901099,151.0093186813187,111.38931297709924,187.6030534351145,0.0,732.6605504587155,134.954128440367,24.220183486238533,0.0
1760282386.0771246,212,-0.6324395604395605,1.5810989010989014,169.32131868131867,117.25190839694656,199.32824427480915,0.0,791.3761467889908,134.954128440367,-22.752293577981654,0.0
1760282386.098494,213,-0.46714285714285714,1.7320219780219783,154.83989010989012,107.48091603053435,195.4198473282443,0.0,850.0917431192661,134.954128440367,47.706422018348626,0.0
1760282386.1092134,214,-0.5605714285714286,1.6745274725274726,163.94558241758244,121.16030534351145,199.32824427480915,0.0,908.8073394495412,87.98165137614679,-22.752293577981654,0.0
1760282386.1305265,215,-0.5102637362637363,1.6601538461538463,160.27312087912088,99.66412213740458,197.3740458015267,0.0,967.5229357798164,111.4678899082569,0.7339449541284404,0.0
1760282386.162323,216,-0.539010989010989,1.7032747252747253,160.10782417582416,113.34351145038168,199.32824427480915,0.0,1026.2385321100917,111.4678899082569,-22.752293577981654,0.0
1760282386.1730998,217,-0.5030769230769231,1.7535824175824177,158.36142857142858,109.43511450381679,197.3740458015267,0.0,1084.954128440367,134.954128440367,24.220183486238533,0.0
1760282386.194505,218,1.4158021978021977,0.02874725274725275,158.47641758241758,123.1145038167939,199.32824427480915,0.0,1143.6697247706422,134.954128440367,0.7339449541284404,0.0
1760282386.2263143,219,-0.5965054945054945,1.609846153846154,149.25573626373625,119.20610687022901,191.5114503816794,0.0,1202.3853211009173,111.4678899082569,0.7339449541284404,0.0
1760282386.2370763,220,-0.4815164835164835,1.8038901098901101,152.91382417582417,127.02290076335878,193.46564885496184,0.0,1261.1009174311926,134.954128440367,24.220183486238533,0.0
1760282386.258485,221,-0.46714285714285714,1.6960879120879122,162.0626373626374,111.38931297709924,187.6030534351145,0.0,1319.8165137614678,134.954128440367,47.706422018348626,0.0
1760282386.2902899,222,-0.48870329670329676,1.7535824175824177,160.23,113.34351145038168,209.09923664122138,0.0,1378.532110091743,111.4678899082569,0.7339449541284404,0.0
1760282386.3010015,223,-0.5030769230769231,1.8038901098901101,165.79978021978025,113.34351145038168,183.6946564885496,0.0,1437.2477064220184,158.44036697247705,47.706422018348626,0.0
1760282386.3223119,224,-0.43839560439560443,1.7823296703296703,147.31529670329672,103.57251908396947,187.6030534351145,0.0,1495.9633027522934,134.954128440367,24.220183486238533,0.0
1760282386.3329935,225,-0.6108791208791209,1.8254505494505495,151.074,115.29770992366412,205.1908396946565,0.0,1554.6788990825687,158.44036697247705,71.19266055045873,0.0
1760282386.3543267,226,-0.4958901098901099,1.767956043956044,158.45485714285715,105.52671755725191,197.3740458015267,0.0,1613.3944954128442,111.4678899082569,0.7339449541284404,0.0
1760282386.3650155,227,-0.459956043956044,1.6960879120879122,165.86446153846154,125.06870229007633,199.32824427480915,0.0,1672.1100917431195,87.98165137614679,0.7339449541284404,0.0
1760282386.386123,228,-0.5318241758241758,1.7823296703296703,156.60784615384617,109.43511450381679,201.2824427480916,0.0,1730.8256880733945,134.954128440367,24.220183486238533,0.0
1760282386.4178212,229,-0.5533846153846155,1.724835164835165,162.11294505494507,113.34351145038168,193.46564885496184,0.0,1789.5412844036698,111.4678899082569,0.7339449541284404,0.0
1760282386.4286025,230,-0.5030769230769231,1.8182637362637364,152.79164835164835,109.43511450381679,203.23664122137404,0.0,1848.256880733945,111.4678899082569,47.706422018348626,0.0
1760282386.4499135,231,-0.48870329670329676,1.7895164835164834,167.5821098901099,107.48091603053435,199.32824427480915,0.0,1906.9724770642204,134.954128440367,0.7339449541284404,0.0
1760282386.481763,232,-0.5318241758241758,1.6817142857142857,158.39017582417583,115.29770992366412,193.46564885496184,0.0,1965.6880733944956,87.98165137614679,24.220183486238533,0.0
1760282386.4925132,233,-0.4743296703296704,1.8254505494505495,158.41892307692308,111.38931297709924,183.6946564885496,0.0,2024.4036697247707,87.98165137614679,-22.752293577981654,0.0
1760282386.5138233,234,-0.4743296703296704,1.5667252747252747,163.92402197802198,111.38931297709924,203.23664122137404,0.0,2083.119266055046,181.92660550458714,0.7339449541284404,0.0
1760282386.524607,235,-0.43120879120879124,1.7320219780219783,162.10575824175828,130.93129770992365,183.6946564885496,0.0,2141.8348623853212,87.98165137614679,0.7339449541284404,0.0
1760282386.5459614,236,-0.5677582417582419,1.7032747252747253,156.5719120879121,113.34351145038168,207.14503816793894,0.0,2200.5504587155965,158.44036697247705,24.220183486238533,0.0
1760282386.5778704,237,-0.5893186813186814,1.6385934065934065,151.0668131868132,111.38931297709924,203.23664122137404,0.0,2259.266055045872,134.954128440367,0.7339449541284404,0.0
1760282386.5886104,238,-0.43839560439560443,1.6960879120879122,162.077010989011,103.57251908396947,193.46564885496184,0.0,2317.981651376147,134.954128440367,47.706422018348626,0.0
1760282386.6096148,239,-0.4958901098901099,1.688901098901099,169.47942857142857,111.38931297709924,187.6030534351145,0.0,2376.6972477064223,134.954128440367,24.220183486238533,0.0
1760282386.6200726,240,-0.43120879120879124,1.8038901098901101,171.30487912087912,117.25190839694656,199.32824427480915,0.0,2435.4128440366976,87.98165137614679,0.7339449541284404,0.0
1760282386.6412325,241,-0.42402197802197805,1.7320219780219783,163.92402197802198,113.34351145038168,203.23664122137404,0.0,2494.1284403669724,111.4678899082569,47.706422018348626,0.0
1760282386.6730313,242,-0.6252527472527473,1.8182637362637364,156.62221978021978,101.61832061068702,193.46564885496184,0.0,2552.8440366972477,111.4678899082569,0.7339449541284404,0.0
1760282386.6836638,243,-0.6755604395604397,1.8254505494505495,165.79259340659343,109.43511450381679,199.32824427480915,0.0,2611.559633027523,134.954128440367,0.7339449541284404,0.0
1760282386.7048616,244,-0.459956043956044,1.8110769230769233,158.34705494505494,111.38931297709924,193.46564885496184,0.0,2670.275229357798,134.954128440367,0.7339449541284404,0.0
1760282386.7366602,245,-0.5461978021978022,1.7535824175824177,164.02463736263738,111.38931297709924,191.5114503816794,0.0,2728.990825688073,111.4678899082569,24.220183486238533,0.0
1760282386.7473733,246,-0.5318241758241758,1.8182637362637364,160.30905494505495,109.43511450381679,205.1908396946565,0.0,2787.7064220183483,111.4678899082569,24.220183486238533,0.0
1760282386.7688046,247,-0.6036923076923078,1.7535824175824177,169.42193406593407,113.34351145038168,187.6030534351145,0.0,2846.4220183486236,87.98165137614679,24.220183486238533,0.0
1760282386.7796197,248,-0.5461978021978022,1.8038901098901101,145.53296703296704,125.06870229007633,189.55725190839695,0.0,2905.137614678899,134.954128440367,24.220183486238533,0.0
1760282386.8009288,249,-0.44558241758241757,1.609846153846154,160.27312087912088,107.48091603053435,187.6030534351145,0.0,2963.853211009174,134.954128440367,-22.752293577981654,0.0
1760282386.832837,250,-0.6252527472527473,1.8326373626373627,145.51859340659342,99.66412213740458,181.74045801526717,0.0,-2989.908256880734,158.44036697247705,71.19266055045873,0.0
1760282386.843678,251,-0.5102637362637363,1.8326373626373627,147.4159120879121,101.61832061068702,193.46564885496184,0.0,-2931.1926605504586,111.4678899082569,0.7339449541284404,0.0
1760282386.8648915,252,-0.5174505494505495,1.6601538461538463,173.11595604395606,107.48091603053435,201.2824427480916,0.0,-2872.477064220184,134.954128440367,24.220183486238533,0.0
1760282386.8757415,253,-0.5821318681318681,1.688901098901099,147.4159120879121,125.06870229007633,199.32824427480915,0.0,-2813.7614678899085,158.44036697247705,47.706422018348626,0.0
1760282386.8969405,254,-0.5461978021978022,1.767956043956044,169.4291208791209,111.38931297709924,203.23664122137404,0.0,-2755.0458715596333,87.98165137614679,0.7339449541284404,0.0
1760282386.928781,255,-0.44558241758241757,1.7895164835164834,149.2844835164835,101.61832061068702,195.4198473282443,0.0,-2696.330275229358,134.954128440367,-22.752293577981654,0.0
1760282386.9396367,256,-0.5461978021978022,1.7751428571428571,152.8635164835165,111.38931297709924,203.23664122137404,0.0,-2637.6146788990827,111.4678899082569,-46.23853211009175,0.0
1760282386.9609578,257,-0.574945054945055,1.7392087912087915,162.15606593406596,107.48091603053435,189.55725190839695,0.0,-2578.8990825688074,134.954128440367,24.220183486238533,0.0
1760282386.9928324,258,-0.5030769230769231,1.7823296703296703,154.7752087912088,115.29770992366412,193.46564885496184,0.0,-2520.183486238532,111.4678899082569,47.706422018348626,0.0
1760282387.0036654,259,-0.5461978021978022,1.6385934065934065,160.22281318681317,117.25190839694656,197.3740458015267,0.0,-2461.467889908257,111.4678899082569,24.220183486238533,0.0
1760282387.0250607,260,-0.5102637362637363,1.6673406593406594,154.7177142857143,109.43511450381679,195.4198473282443,0.0,-2402.7522935779816,111.4678899082569,-22.752293577981654,0.0
1760282387.0358112,261,-0.5605714285714286,1.7607692307692309,145.59764835164836,111.38931297709924,189.55725190839695,0.0,-2344.0366972477063,111.4678899082569,24.220183486238533,0.0
1760282387.057042,262,-0.574945054945055,1.5954725274725277,151.05962637362637,107.48091603053435,201.2824427480916,0.0,-2285.321100917431,111.4678899082569,0.7339449541284404,0.0
1760282387.0800333,263,-0.459956043956044,1.7392087912087915,167.71865934065934,107.48091603053435,195.4198473282443,0.0,-2226.6055045871562,87.98165137614679,47.706422018348626,0.0
1760282387.0907445,264,-0.5246373626373626,1.7967032967032968,165.79259340659343,113.34351145038168,199.32824427480915,0.0,-2167.889908256881,111.4678899082569,71.19266055045873,0.0
1760282387.1120028,265,-0.5605714285714286,1.7032747252747253,160.2946813186813,113.34351145038168,193.46564885496184,0.0,-2109.1743119266057,111.4678899082569,24.220183486238533,0.0
1760282387.1436894,266,-0.5318241758241758,1.724835164835165,154.81114285714287,127.02290076335878,197.3740458015267,0.0,-2050.4587155963304,111.4678899082569,71.19266055045873,0.0
1760282387.1540842,267,-0.43120879120879124,1.7967032967032968,160.2371868131868,101.61832061068702,193.46564885496184,0.0,-1991.7431192660551,111.4678899082569,-22.752293577981654,0.0
1760282387.1752856,268,-0.5318241758241758,1.767956043956044,162.09857142857146,115.29770992366412,197.3740458015267,0.0,-1933.0275229357799,134.954128440367,-22.752293577981654,0.0
1760282387.1859713,269,-0.5605714285714286,1.7967032967032968,162.11294505494507,107.48091603053435,199.32824427480915,0.0,-1874.3119266055046,111.4678899082569,-22.752293577981654,0.0
1760282387.2072215,270,-0.48870329670329676,1.6960879120879122,175.04202197802198,107.48091603053435,197.3740458015267,0.0,-1815.5963302752293,111.4678899082569,24.220183486238533,0.0
1760282387.2385256,271,-0.459956043956044,1.7535824175824177,158.53391208791209,103.57251908396947,191.5114503816794,0.0,-1756.8807339449543,134.954128440367,-22.752293577981654,0.0
1760282387.2489386,272,-0.6899340659340659,1.7463956043956046,162.1776263736264,115.29770992366412,199.32824427480915,0.0,-1698.165137614679,134.954128440367,0.7339449541284404,0.0
1760282387.269838,273,-0.5318241758241758,1.7823296703296703,175.0348351648352,105.52671755725191,195.4198473282443,0.0,-1639.4495412844037,87.98165137614679,47.706422018348626,0.0
1760282387.3011477,274,-0.459956043956044,1.7895164835164834,154.7249010989011,119.20610687022901,205.1908396946565,0.0,-1580.7339449541284,181.92660550458714,47.706422018348626,0.0
1760282387.311817,275,1.3583076923076924,0.0,163.8593406593407,121.16030534351145,195.4198473282443,0.0,-1522.0183486238532,111.4678899082569,47.706422018348626,0.0
1760282387.333134,276,-0.574945054945055,1.6601538461538463,160.23,111.38931297709924,197.3740458015267,0.0,-1463.3027522935781,111.4678899082569,0.7339449541284404,0.0
1760282387.3438613,277,-0.4743296703296704,1.5954725274725277,156.54316483516484,109.43511450381679,201.2824427480916,0.0,-1404.5871559633028,111.4678899082569,0.7339449541284404,0.0
1760282387.365205,278,1.458923076923077,0.02874725274725275,162.09138461538464,113.34351145038168,193.46564885496184,0.0,-1345.8715596330276,111.4678899082569,0.7339449541284404,0.0
1760282387.3968396,279,-0.42402197802197805,1.7751428571428571,163.90964835164837,101.61832061068702,199.32824427480915,0.0,-1287.1559633027523,134.954128440367,0.7339449541284404,0.0
1760282387.4075952,280,-0.4958901098901099,1.7320219780219783,152.92819780219781,111.38931297709924,193.46564885496184,0.0,-1228.440366972477,111.4678899082569,0.7339449541284404,0.0
1760282387.428696,281,-0.459956043956044,1.7392087912087915,163.96714285714287,113.34351145038168,179.78625954198472,0.0,-1169.7247706422017,181.92660550458714,24.220183486238533,0.0
1760282387.460147,282,-0.44558241758241757,1.6817142857142857,152.921010989011,121.16030534351145,203.23664122137404,0.0,-1111.0091743119267,158.44036697247705,71.19266055045873,0.0
1760282387.4707937,283,-0.6036923076923078,1.6457802197802198,152.88507692307692,113.34351145038168,193.46564885496184,0.0,-1052.2935779816514,87.98165137614679,24.220183486238533,0.0
1760282387.4921513,284,-0.5246373626373626,1.7176483516483516,160.21562637362638,105.52671755725191,189.55725190839695,0.0,-993.5779816513761,111.4678899082569,-22.752293577981654,0.0
1760282387.502851,285,1.3654945054945056,0.08624175824175824,143.70751648351649,115.29770992366412,189.55725190839695,0.0,-934.8623853211009,111.4678899082569,0.7339449541284404,0.0
1760282387.5241773,286,-0.459956043956044,1.6529670329670332,167.65397802197802,105.52671755725191,197.3740458015267,0.0,-876.1467889908257,134.954128440367,0.7339449541284404,0.0
1760282387.5559494,287,-0.459956043956044,1.7392087912087915,167.61804395604395,101.61832061068702,197.3740458015267,0.0,-817.4311926605504,134.954128440367,24.220183486238533,0.0
1760282387.5666857,288,-0.5461978021978022,1.7751428571428571,158.46923076923076,111.38931297709924,197.3740458015267,0.0,-758.7155963302753,111.4678899082569,0.7339449541284404,0.0
1760282387.5880253,289,-0.46714285714285714,1.7463956043956046,163.9168351648352,109.43511450381679,199.32824427480915,0.0,-700.0,111.4678899082569,24.220183486238533,0.0
1760282387.6092477,290,-0.6396263736263736,1.7320219780219783,145.5689010989011,125.06870229007633,187.6030534351145,0.0,-641.2844036697247,111.4678899082569,47.706422018348626,0.0
1760282387.6200578,291,-0.5246373626373626,1.6673406593406594,160.25874725274724,103.57251908396947,195.4198473282443,0.0,-582.5688073394496,87.98165137614679,24.220183486238533,0.0
1760282387.641117,292,-0.5246373626373626,1.7176483516483516,160.344989010989,101.61832061068702,201.2824427480916,0.0,-523.8532110091743,134.954128440367,-22.752293577981654,0.0
1760282387.6518006,293,-0.5102637362637363,1.6745274725274726,160.30905494505495,111.38931297709924,203.23664122137404,0.0,-465.13761467889907,111.4678899082569,0.7339449541284404,0.0
1760282387.6731253,294,-0.5246373626373626,1.7463956043956046,154.6674065934066,99.66412213740458,205.1908396946565,0.0,-406.42201834862385,158.44036697247705,24.220183486238533,0.0
1760282387.7049046,295,1.3367472527472526,0.07905494505494506,160.2874945054945,115.29770992366412,185.64885496183206,0.0,-347.7064220183486,134.954128440367,0.7339449541284404,0.0
1760282387.7157054,296,-0.3880879120879121,1.8110769230769233,160.26593406593406,111.38931297709924,193.46564885496184,0.0,-288.9908256880734,158.44036697247705,0.7339449541284404,0.0
1760282387.7369554,297,-0.36652747252747253,1.7607692307692309,158.39736263736265,105.52671755725191,193.46564885496184,0.0,-230.2752293577982,134.954128440367,-22.752293577981654,0.0
1760282387.7687676,298,-0.5461978021978022,1.7463956043956046,147.32248351648352,117.25190839694656,193.46564885496184,0.0,-171.55963302752292,111.4678899082569,71.19266055045873,0.0
1760282387.7795527,299,1.264879120879121,0.0071868131868131875,156.58628571428574,111.38931297709924,193.46564885496184,0.0,-112.8440366972477,158.44036697247705,0.7339449541284404,0.0
1760282387.800842,300,-0.6108791208791209,1.7895164835164834,160.31624175824174,113.34351145038168,197.3740458015267,0.0,-54.12844036697248,158.44036697247705,47.706422018348626,0.0
1760282387.832641,301,-0.43839560439560443,1.7392087912087915,162.08419780219782,111.38931297709924,185.64885496183206,0.0,4.587155963302752,158.53211009174314,0.7339449541284404,0.0
1760282387.8431895,302,-0.5461978021978022,1.7895164835164834,163.98151648351651,109.43511450381679,195.4198473282443,0.0,63.30275229357798,111.55963302752295,0.7339449541284404,0.0
1760282387.8643064,303,-0.4096483516483516,1.7176483516483516,152.92819780219781,107.48091603053435,201.2824427480916,0.0,122.01834862385321,135.04587155963304,0.7339449541284404,0.0
1760282387.875099,304,-0.43839560439560443,1.6817142857142857,156.6294065934066,111.38931297709924,185.64885496183206,0.0,180.73394495412845,88.07339449541286,-22.752293577981654,0.0
1760282387.8964832,305,-0.41683516483516486,1.688901098901099,163.88090109890112,105.52671755725191,191.5114503816794,0.0,239.44954128440367,135.04587155963304,24.220183486238533,0.0
1760282387.928251,306,-0.5102637362637363,1.7104615384615385,143.67876923076923,111.38931297709924,201.2824427480916,0.0,298.1651376146789,135.04587155963304,24.220183486238533,0.0
1760282387.9390006,307,-0.5677582417582419,1.7392087912087915,162.04826373626375,111.38931297709924,193.46564885496184,0.0,356.88073394495416,135.04587155963304,-22.752293577981654,0.0
1760282387.9604416,308,-0.5318241758241758,1.7032747252747253,154.7177142857143,109.43511450381679,199.32824427480915,0.0,415.5963302752293,158.53211009174314,-22.752293577981654,0.0
1760282387.9711893,309,-0.5821318681318681,1.7895164835164834,161.97639560439563,113.34351145038168,203.23664122137404,0.0,474.31192660550454,158.53211009174314,24.220183486238533,0.0
1760282387.9924865,310,-0.6468131868131869,1.7320219780219783,152.8635164835165,105.52671755725191,199.32824427480915,0.0,533.0275229357798,111.55963302752295,0.7339449541284404,0.0
1760282388.0242608,311,1.4158021978021977,0.05030769230769231,154.78239560439562,103.57251908396947,181.74045801526717,0.0,591.743119266055,135.04587155963304,24.220183486238533,0.0
1760282388.0350468,312,-0.6108791208791209,1.767956043956044,158.47641758241758,113.34351145038168,203.23664122137404,0.0,650.4587155963303,111.55963302752295,47.706422018348626,0.0
1760282388.0563521,313,1.3726813186813187,0.03593406593406594,169.40037362637364,113.34351145038168,197.3740458015267,0.0,709.1743119266055,135.04587155963304,47.706422018348626,0.0
1760282388.0882654,314,-0.5318241758241758,1.7607692307692309,160.19406593406592,109.43511450381679,205.1908396946565,0.0,767.8899082568807,182.01834862385323,24.220183486238533,0.0
1760282388.0990334,315,-0.44558241758241757,1.6457802197802198,154.7752087912088,113.34351145038168,187.6030534351145,0.0,826.605504587156,111.55963302752295,-22.752293577981654,0.0
1760282388.1202114,316,-0.5461978021978022,1.7535824175824177,163.9312087912088,109.43511450381679,195.4198473282443,0.0,885.3211009174313,111.55963302752295,0.7339449541284404,0.0
1760282388.1309292,317,-0.3809010989010989,1.6817142857142857,154.78239560439562,105.52671755725191,201.2824427480916,0.0,944.0366972477063,111.55963302752295,0.7339449541284404,0.0
1760282388.1521394,318,-0.3737142857142858,1.6817142857142857,165.73509890109892,113.34351145038168,199.32824427480915,0.0,1002.7522935779816,158.53211009174314,24.220183486238533,0.0
1760282388.173302,319,-0.4743296703296704,1.7392087912087915,158.40454945054947,117.25190839694656,199.32824427480915,0.0,1061.467889908257,111.55963302752295,-22.752293577981654,0.0
1760282388.1839466,320,-0.4743296703296704,1.6673406593406594,167.56054945054944,103.57251908396947,183.6946564885496,0.0,1120.183486238532,135.04587155963304,24.220183486238533,0.0
1760282388.2050037,321,-0.5246373626373626,1.6457802197802198,152.90663736263735,111.38931297709924,189.55725190839695,0.0,1178.8990825688072,111.55963302752295,-22.752293577981654,0.0
1760282388.236832,322,-0.5102637362637363,1.7320219780219783,165.74947252747253,109.43511450381679,189.55725190839695,0.0,1237.6146788990825,111.55963302752295,24.220183486238533,0.0
1760282388.2473884,323,-0.4527692307692308,1.8326373626373627,163.98151648351651,121.16030534351145,187.6030534351145,0.0,1296.3302752293578,135.04587155963304,-22.752293577981654,0.0
1760282388.2683375,324,-0.5677582417582419,1.7463956043956046,158.39017582417583,107.48091603053435,199.32824427480915,0.0,1355.045871559633,135.04587155963304,24.220183486238533,0.0
1760282388.2790568,325,-0.5102637362637363,1.688901098901099,160.2946813186813,115.29770992366412,195.4198473282443,0.0,1413.761467889908,111.55963302752295,24.220183486238533,0.0
1760282388.3004918,326,-0.39527472527472535,1.7895164835164834,165.7422857142857,105.52671755725191,193.46564885496184,0.0,1472.4770642201834,158.53211009174314,24.220183486238533,0.0
1760282388.332203,327,-0.5318241758241758,1.688901098901099,140.02068131868134,119.20610687022901,193.46564885496184,0.0,1531.1926605504586,135.04587155963304,-22.752293577981654,0.0
1760282388.3428235,328,-0.46714285714285714,1.7751428571428571,154.73927472527475,107.48091603053435,199.32824427480915,0.0,1589.908256880734,111.55963302752295,24.220183486238533,0.0
1760282388.3640664,329,-0.459956043956044,1.7392087912087915,158.39736263736265,111.38931297709924,193.46564885496184,0.0,1648.6238532110092,135.04587155963304,24.220183486238533,0.0
1760282388.3749375,330,1.2864395604395606,0.0,165.80696703296704,113.34351145038168,199.32824427480915,0.0,1707.3394495412845,111.55963302752295,24.220183486238533,0.0
1760282388.396092,331,-0.574945054945055,1.6817142857142857,163.9312087912088,107.48091603053435,185.64885496183206,0.0,1766.0550458715597,111.55963302752295,0.7339449541284404,0.0
1760282388.427893,332,1.5020439560439562,0.0,151.0668131868132,115.29770992366412,191.5114503816794,0.0,1824.770642201835,135.04587155963304,24.220183486238533,0.0
1760282388.4386365,333,-0.4743296703296704,1.6960879120879122,162.05545054945057,101.61832061068702,191.5114503816794,0.0,1883.4862385321103,111.55963302752295,0.7339449541284404,0.0
1760282388.4595056,334,-0.4743296703296704,1.6529670329670332,158.49079120879122,119.20610687022901,199.32824427480915,0.0,1942.2018348623856,135.04587155963304,24.220183486238533,0.0
1760282388.4910553,335,-0.539010989010989,1.767956043956044,165.7854065934066,107.48091603053435,189.55725190839695,0.0,2000.9174311926606,111.55963302752295,-22.752293577981654,0.0
1760282388.5018947,336,-0.4527692307692308,1.6745274725274726,154.78239560439562,109.43511450381679,195.4198473282443,0.0,2059.633027522936,135.04587155963304,0.7339449541284404,0.0
1760282388.5231621,337,-0.5821318681318681,1.724835164835165,167.66835164835166,111.38931297709924,197.3740458015267,0.0,2118.3486238532114,135.04587155963304,24.220183486238533,0.0
1760282388.53381,338,-0.6180659340659341,1.7032747252747253,156.66534065934067,103.57251908396947,189.55725190839695,0.0,2177.064220183486,158.53211009174314,0.7339449541284404,0.0
1760282388.5551515,339,-0.46714285714285714,1.617032967032967,154.74646153846155,111.38931297709924,193.46564885496184,0.0,2235.7798165137615,111.55963302752295,0.7339449541284404,0.0
1760282388.586828,340,-0.574945054945055,1.617032967032967,162.04826373626375,109.43511450381679,203.23664122137404,0.0,2294.4954128440368,158.53211009174314,94.67889908256882,0.0
1760282388.597492,341,-0.459956043956044,1.7032747252747253,163.92402197802198,119.20610687022901,195.4198473282443,0.0,2353.211009174312,88.07339449541286,47.706422018348626,0.0
1760282388.6188061,342,-0.5533846153846155,1.6817142857142857,158.3254945054945,115.29770992366412,193.46564885496184,0.0,2411.9266055045873,111.55963302752295,0.7339449541284404,0.0
1760282388.65048,343,-0.5461978021978022,1.6529670329670332,163.9312087912088,115.29770992366412,193.46564885496184,0.0,2470.6422018348626,182.01834862385323,24.220183486238533,0.0
1760282388.6611166,344,-0.459956043956044,1.8110769230769233,162.19918681318683,127.02290076335878,199.32824427480915,0.0,2529.3577981651374,111.55963302752295,47.706422018348626,0.0
1760282388.6823297,345,-0.41683516483516486,1.8038901098901101,160.26593406593406,111.38931297709924,207.14503816793894,0.0,2588.0733944954127,135.04587155963304,24.220183486238533,0.0
1760282388.6931064,346,-0.459956043956044,1.5954725274725277,163.94558241758244,111.38931297709924,205.1908396946565,0.0,2646.788990825688,135.04587155963304,0.7339449541284404,0.0
1760282388.71435,347,-0.5102637362637363,1.8254505494505495,156.54316483516484,119.20610687022901,191.5114503816794,0.0,2705.5045871559632,135.04587155963304,24.220183486238533,0.0
1760282388.7460084,348,-0.5318241758241758,1.7176483516483516,158.41892307692308,113.34351145038168,195.4198473282443,0.0,2764.2201834862385,111.55963302752295,24.220183486238533,0.0
1760282388.756743,349,-0.46714285714285714,1.724835164835165,156.615032967033,107.48091603053435,193.46564885496184,0.0,2822.935779816514,135.04587155963304,24.220183486238533,0.0
1760282388.777954,350,-0.4527692307692308,1.767956043956044,173.12314285714288,109.43511450381679,203.23664122137404,0.0,2881.6513761467886,111.55963302752295,47.706422018348626,0.0
1760282388.8097472,351,-0.4096483516483516,1.7176483516483516,154.7249010989011,103.57251908396947,195.4198473282443,0.0,2940.366972477064,135.04587155963304,0.7339449541284404,0.0
1760282388.820497,352,-0.5461978021978022,1.7032747252747253,160.2371868131868,103.57251908396947,199.32824427480915,0.0,2999.082568807339,158.53211009174314,0.7339449541284404,0.0
1760282388.8418257,353,-0.5030769230769231,1.6673406593406594,158.3111208791209,117.25190839694656,193.46564885496184,0.0,-2954.678899082569,135.04587155963304,0.7339449541284404,0.0
1760282388.8732965,354,-0.5605714285714286,1.7320219780219783,156.5719120879121,107.48091603053435,185.64885496183206,0.0,-2895.9633027522937,111.55963302752295,0.7339449541284404,0.0
1760282388.8837109,355,-0.5318241758241758,1.688901098901099,163.93839560439562,103.57251908396947,181.74045801526717,0.0,-2837.2477064220184,111.55963302752295,47.706422018348626,0.0
1760282388.8941553,356,-0.6396263736263736,1.6960879120879122,147.3081098901099,105.52671755725191,197.3740458015267,0.0,-2778.532110091743,158.53211009174314,0.7339449541284404,0.0
1760282388.904874,357,-0.48870329670329676,1.7967032967032968,162.10575824175828,113.34351145038168,189.55725190839695,0.0,-2719.816513761468,158.53211009174314,71.19266055045873,0.0
1760282388.9366326,358,1.2936263736263738,0.03593406593406594,163.93839560439562,109.43511450381679,205.1908396946565,0.0,-2661.1009174311926,158.53211009174314,24.220183486238533,0.0
1760282388.9472625,359,-0.4815164835164835,1.7463956043956046,167.6324175824176,107.48091603053435,199.32824427480915,0.0,-2602.3853211009177,88.07339449541286,0.7339449541284404,0.0
1760282388.968601,360,-0.6036923076923078,1.7392087912087915,169.34287912087913,105.52671755725191,197.3740458015267,0.0,-2543.6697247706425,135.04587155963304,-22.752293577981654,0.0
1760282389.0002913,361,-0.5821318681318681,1.724835164835165,154.68178021978022,113.34351145038168,195.4198473282443,0.0,-2484.954128440367,111.55963302752295,47.706422018348626,0.0
1760282389.0109572,362,-0.42402197802197805,1.688901098901099,154.81114285714287,113.34351145038168,185.64885496183206,0.0,-2426.238532110092,135.04587155963304,0.7339449541284404,0.0
1760282389.0322924,363,-0.3880879120879121,1.7463956043956046,162.10575824175828,111.38931297709924,195.4198473282443,0.0,-2367.5229357798166,158.53211009174314,24.220183486238533,0.0
1760282389.0640316,364,-0.4527692307692308,1.6601538461538463,169.5441098901099,117.25190839694656,191.5114503816794,0.0,-2308.8073394495414,111.55963302752295,24.220183486238533,0.0
1760282389.0747576,365,-0.539010989010989,1.6457802197802198,162.26386813186815,103.57251908396947,189.55725190839695,0.0,-2250.091743119266,111.55963302752295,47.706422018348626,0.0
1760282389.096099,366,-0.5677582417582419,1.8110769230769233,160.37373626373625,109.43511450381679,195.4198473282443,0.0,-2191.376146788991,88.07339449541286,-22.752293577981654,0.0
1760282389.1068678,367,-0.5605714285714286,1.724835164835165,149.24854945054946,101.61832061068702,197.3740458015267,0.0,-2132.6605504587155,111.55963302752295,0.7339449541284404,0.0
1760282389.1277587,368,-0.5030769230769231,1.6242197802197802,158.3686153846154,99.66412213740458,201.2824427480916,0.0,-2073.9449541284403,88.07339449541286,24.220183486238533,0.0
1760282389.1590478,369,-0.5102637362637363,1.7535824175824177,154.7752087912088,109.43511450381679,199.32824427480915,0.0,-2015.2293577981652,64.58715596330276,24.220183486238533,0.0
1760282389.1697428,370,-0.3377802197802198,1.7823296703296703,160.15094505494505,105.52671755725191,197.3740458015267,0.0,-1956.51376146789,88.07339449541286,71.19266055045873,0.0
1760282389.1908846,371,-0.48870329670329676,1.7320219780219783,162.14887912087914,109.43511450381679,195.4198473282443,0.0,-1897.7981651376147,135.04587155963304,24.220183486238533,0.0
1760282389.201645,372,-0.459956043956044,1.7176483516483516,152.8778901098901,117.25190839694656,201.2824427480916,0.0,-1839.0825688073396,88.07339449541286,-22.752293577981654,0.0
1760282389.2229435,373,-0.41683516483516486,1.7032747252747253,160.22281318681317,105.52671755725191,187.6030534351145,0.0,-1780.3669724770643,135.04587155963304,24.220183486238533,0.0
1760282389.2442229,374,-0.48870329670329676,1.8038901098901101,151.04525274725276,109.43511450381679,199.32824427480915,0.0,-1721.651376146789,135.04587155963304,24.220183486238533,0.0
1760282389.2549286,375,1.2145714285714286,0.03593406593406594,152.91382417582417,109.43511450381679,187.6030534351145,0.0,-1662.9357798165138,111.55963302752295,47.706422018348626,0.0
1760282389.2761183,376,-0.5318241758241758,1.8326373626373627,152.94257142857143,117.25190839694656,191.5114503816794,0.0,-1604.2201834862385,111.55963302752295,24.220183486238533,0.0
1760282389.307964,377,-0.459956043956044,1.7967032967032968,152.85632967032967,107.48091603053435,199.32824427480915,0.0,-1545.5045871559632,135.04587155963304,0.7339449541284404,0.0
1760282389.339807,378,-0.6324395604395605,1.8182637362637364,162.04107692307696,119.20610687022901,199.32824427480915,0.0,-1486.7889908256882,135.04587155963304,24.220183486238533,0.0
1760282389.3505366,379,-0.5102637362637363,1.767956043956044,143.62846153846155,101.61832061068702,199.32824427480915,0.0,-1428.073394495413,111.55963302752295,-22.752293577981654,0.0
1760282389.3718147,380,-0.5318241758241758,1.6457802197802198,162.21356043956047,105.52671755725191,191.5114503816794,0.0,-1369.3577981651376,135.04587155963304,-22.752293577981654,0.0
1760282389.3825593,381,-0.5102637362637363,1.8038901098901101,154.67459340659343,105.52671755725191,189.55725190839695,0.0,-1310.6422018348624,135.04587155963304,0.7339449541284404,0.0
1760282389.4038277,382,-0.6324395604395605,1.6457802197802198,165.82134065934068,101.61832061068702,203.23664122137404,0.0,-1251.926605504587,135.04587155963304,24.220183486238533,0.0
1760282389.4357374,383,-0.4815164835164835,1.7967032967032968,147.3584175824176,125.06870229007633,199.32824427480915,0.0,-1193.211009174312,135.04587155963304,24.220183486238533,0.0
1760282389.4464757,384,-0.5318241758241758,1.6601538461538463,160.3881098901099,101.61832061068702,201.2824427480916,0.0,-1134.4954128440368,111.55963302752295,0.7339449541284404,0.0
1760282389.4678035,385,1.3151868131868132,0.0,158.3254945054945,121.16030534351145,197.3740458015267,0.0,-1075.7798165137615,111.55963302752295,0.7339449541284404,0.0
1760282389.49976,386,-0.5893186813186814,1.6673406593406594,147.32967032967034,115.29770992366412,199.32824427480915,0.0,-1017.0642201834862,135.04587155963304,24.220183486238533,0.0
1760282389.5105932,387,-0.5821318681318681,1.7463956043956046,171.2976923076923,107.48091603053435,203.23664122137404,0.0,-958.348623853211,111.55963302752295,47.706422018348626,0.0
1760282389.521322,388,-0.5174505494505495,1.7104615384615385,165.74947252747253,111.38931297709924,189.55725190839695,0.0,-899.6330275229358,111.55963302752295,24.220183486238533,0.0
1760282389.5321178,389,-0.5174505494505495,1.7823296703296703,156.54316483516484,115.29770992366412,189.55725190839695,0.0,-840.9174311926606,88.07339449541286,24.220183486238533,0.0
1760282389.5638468,390,-0.4743296703296704,1.688901098901099,152.89945054945056,109.43511450381679,199.32824427480915,0.0,-782.2018348623853,111.55963302752295,24.220183486238533,0.0
1760282389.5746353,391,-0.5246373626373626,1.6745274725274726,147.38716483516484,109.43511450381679,195.4198473282443,0.0,-723.4862385321101,182.01834862385323,-46.23853211009175,0.0
1760282389.5959473,392,-0.459956043956044,1.7823296703296703,158.39017582417583,103.57251908396947,187.6030534351145,0.0,-664.7706422018349,135.04587155963304,24.220183486238533,0.0
1760282389.6277835,393,-0.4527692307692308,1.7176483516483516,152.89945054945056,119.20610687022901,189.55725190839695,0.0,-606.0550458715596,158.53211009174314,0.7339449541284404,0.0
1760282389.6386416,394,-0.43839560439560443,1.7320219780219783,169.45786813186814,107.48091603053435,199.32824427480915,0.0,-547.3394495412844,135.04587155963304,71.19266055045873,0.0
1760282389.6599596,395,-0.5030769230769231,1.7104615384615385,162.09857142857146,103.57251908396947,187.6030534351145,0.0,-488.6238532110092,111.55963302752295,-22.752293577981654,0.0
1760282389.6707876,396,-0.6036923076923078,1.7823296703296703,160.15813186813187,113.34351145038168,191.5114503816794,0.0,-429.9082568807339,135.04587155963304,24.220183486238533,0.0
1760282389.69212,397,-0.5174505494505495,1.6601538461538463,162.22793406593408,115.29770992366412,181.74045801526717,0.0,-371.1926605504587,111.55963302752295,24.220183486238533,0.0
1760282389.7029226,398,-0.44558241758241757,1.7032747252747253,147.46621978021977,119.20610687022901,189.55725190839695,0.0,-312.4770642201835,111.55963302752295,47.706422018348626,0.0
1760282389.7347293,399,-0.5533846153846155,1.7895164835164834,169.43630769230768,113.34351145038168,203.23664122137404,0.0,-253.7614678899083,158.53211009174314,47.706422018348626,0.0
1760282389.7666268,400,-0.4958901098901099,1.7032747252747253,149.29885714285714,111.38931297709924,193.46564885496184,0.0,-195.045871559633,135.04587155963304,47.706422018348626,0.0
1760282389.7773325,401,-0.5246373626373626,1.6314065934065933,160.2874945054945,109.43511450381679,201.2824427480916,0.0,-136.3302752293578,111.55963302752295,0.7339449541284404,0.0
1760282389.7880847,402,-0.4958901098901099,1.688901098901099,167.5821098901099,113.34351145038168,197.3740458015267,0.0,-77.61467889908256,158.53211009174314,47.706422018348626,0.0
1760282389.7987535,403,-0.539010989010989,1.617032967032967,147.44465934065934,109.43511450381679,201.2824427480916,0.0,-18.89908256880734,111.55963302752295,0.7339449541284404,0.0
1760282389.8201227,404,-0.46714285714285714,1.7320219780219783,162.04107692307696,103.57251908396947,197.3740458015267,0.0,39.816513761467895,111.65137614678899,0.7339449541284404,0.0
1760282389.8518581,405,-0.5893186813186814,1.7463956043956046,158.46204395604397,109.43511450381679,197.3740458015267,0.0,98.53211009174312,111.65137614678899,24.220183486238533,0.0
1760282389.8626153,406,-0.5030769230769231,1.6385934065934065,158.39017582417583,99.66412213740458,181.74045801526717,0.0,157.24770642201835,135.1376146788991,24.220183486238533,0.0
1760282389.8838828,407,-0.41683516483516486,1.7176483516483516,156.57909890109892,103.57251908396947,187.6030534351145,0.0,215.96330275229357,111.65137614678899,47.706422018348626,0.0
1760282389.915757,408,-0.4958901098901099,1.7032747252747253,165.7854065934066,113.34351145038168,191.5114503816794,0.0,274.6788990825688,135.1376146788991,0.7339449541284404,0.0
1760282389.9265068,409,-0.5102637362637363,1.609846153846154,158.28956043956043,115.29770992366412,193.46564885496184,0.0,333.39449541284404,158.6238532110092,0.7339449541284404,0.0
1760282389.9478426,410,-0.4815164835164835,1.7535824175824177,163.9887032967033,109.43511450381679,197.3740458015267,0.0,392.11009174311926,158.6238532110092,47.706422018348626,0.0
1760282389.979742,411,-0.5965054945054945,1.688901098901099,147.37279120879123,130.93129770992365,203.23664122137404,0.0,450.8256880733945,88.1651376146789,0.7339449541284404,0.0
1760282389.9904866,412,-0.5030769230769231,1.724835164835165,160.21562637362638,111.38931297709924,193.46564885496184,0.0,509.5412844036697,182.11009174311928,24.220183486238533,0.0
1760282390.0118446,413,-0.48870329670329676,1.7104615384615385,160.15813186813187,115.29770992366412,195.4198473282443,0.0,568.256880733945,111.65137614678899,24.220183486238533,0.0
1760282390.0226264,414,1.300813186813187,0.0071868131868131875,152.921010989011,113.34351145038168,189.55725190839695,0.0,626.9724770642201,111.65137614678899,24.220183486238533,0.0
1760282390.0439978,415,-0.6036923076923078,1.609846153846154,158.382989010989,105.52671755725191,195.4198473282443,0.0,685.6880733944954,135.1376146788991,24.220183486238533,0.0
1760282390.0756505,416,-0.46714285714285714,1.6745274725274726,152.84195604395606,113.34351145038168,195.4198473282443,0.0,744.4036697247707,111.65137614678899,94.67889908256882,0.0
1760282390.0862203,417,-0.5461978021978022,1.8110769230769233,162.15606593406596,117.25190839694656,205.1908396946565,0.0,803.119266055046,135.1376146788991,47.706422018348626,0.0
1760282390.1073806,418,-0.5461978021978022,1.6960879120879122,156.6294065934066,111.38931297709924,195.4198473282443,0.0,861.8348623853212,135.1376146788991,24.220183486238533,0.0
1760282390.1179554,419,-0.5461978021978022,1.7967032967032968,150.99494505494508,111.38931297709924,191.5114503816794,0.0,920.5504587155963,111.65137614678899,-22.752293577981654,0.0
1760282390.1389349,420,-0.6180659340659341,1.688901098901099,149.24854945054946,115.29770992366412,191.5114503816794,0.0,979.2660550458714,135.1376146788991,24.220183486238533,0.0
1760282390.1708739,421,-0.4958901098901099,1.8038901098901101,165.87883516483518,117.25190839694656,205.1908396946565,0.0,1037.9816513761466,88.1651376146789,-22.752293577981654,0.0
1760282390.1816406,422,-0.48870329670329676,1.7967032967032968,171.36956043956044,109.43511450381679,195.4198473282443,0.0,1096.6972477064219,88.1651376146789,-22.752293577981654,0.0
1760282390.2029402,423,-0.6108791208791209,1.7967032967032968,145.44672527472528,121.16030534351145,197.3740458015267,0.0,1155.4128440366972,111.65137614678899,24.220183486238533,0.0
1760282390.2348278,424,-0.5821318681318681,1.7751428571428571,141.83175824175825,107.48091603053435,185.64885496183206,0.0,1214.1284403669724,111.65137614678899,24.220183486238533,0.0
1760282390.2456167,425,-0.5318241758241758,1.7751428571428571,145.54015384615386,105.52671755725191,189.55725190839695,0.0,1272.8440366972477,88.1651376146789,47.706422018348626,0.0
1760282390.2668967,426,-0.6252527472527473,1.7895164835164834,154.63865934065936,113.34351145038168,195.4198473282443,0.0,1331.559633027523,135.1376146788991,47.706422018348626,0.0
1760282390.2776735,427,-0.5533846153846155,1.6960879120879122,151.074,101.61832061068702,193.46564885496184,0.0,1390.275229357798,111.65137614678899,24.220183486238533,0.0
1760282390.298851,428,-0.6468131868131869,1.767956043956044,169.45786813186814,113.34351145038168,193.46564885496184,0.0,1448.9908256880733,158.6238532110092,0.7339449541284404,0.0
1760282390.3301387,429,-0.41683516483516486,1.617032967032967,163.95276923076926,125.06870229007633,197.3740458015267,0.0,1507.7064220183486,88.1651376146789,0.7339449541284404,0.0
1760282390.3407571,430,-0.5461978021978022,1.7895164835164834,154.6602197802198,111.38931297709924,197.3740458015267,0.0,1566.4220183486239,158.6238532110092,24.220183486238533,0.0
1760282390.362065,431,-0.5030769230769231,1.6457802197802198,151.13149450549452,105.52671755725191,197.3740458015267,0.0,1625.1376146788991,158.6238532110092,24.220183486238533,0.0
1760282390.3938222,432,-0.5677582417582419,1.6385934065934065,160.3378021978022,113.34351145038168,193.46564885496184,0.0,1683.8532110091744,88.1651376146789,24.220183486238533,0.0
1760282390.4046295,433,-0.5246373626373626,1.7463956043956046,167.62523076923077,121.16030534351145,203.23664122137404,0.0,1742.5688073394497,135.1376146788991,24.220183486238533,0.0
1760282390.4153607,434,-0.5102637362637363,1.7607692307692309,150.94463736263737,107.48091603053435,195.4198473282443,0.0,1801.284403669725,135.1376146788991,71.19266055045873,0.0
1760282390.4261594,435,-0.4815164835164835,1.7463956043956046,165.8357142857143,111.38931297709924,187.6030534351145,0.0,1860.0000000000002,158.6238532110092,24.220183486238533,0.0
1760282390.4473846,436,-0.4743296703296704,1.8254505494505495,152.83476923076924,113.34351145038168,197.3740458015267,0.0,1918.7155963302753,158.6238532110092,0.7339449541284404,0.0
1760282390.479226,437,-0.539010989010989,1.7104615384615385,158.41173626373626,113.34351145038168,199.32824427480915,0.0,1977.4311926605506,182.11009174311928,0.7339449541284404,0.0
1760282390.4899726,438,-0.43120879120879124,1.8254505494505495,165.79978021978025,121.16030534351145,187.6030534351145,0.0,2036.1467889908258,111.65137614678899,0.7339449541284404,0.0
1760282390.5113738,439,-0.5533846153846155,1.7392087912087915,160.32342857142856,105.52671755725191,199.32824427480915,0.0,2094.862385321101,111.65137614678899,24.220183486238533,0.0
1760282390.543305,440,-0.4815164835164835,1.6601538461538463,141.89643956043957,117.25190839694656,205.1908396946565,0.0,2153.5779816513764,111.65137614678899,-22.752293577981654,0.0
1760282390.554203,441,-0.46714285714285714,1.7320219780219783,151.10274725274726,99.66412213740458,191.5114503816794,0.0,2212.2935779816517,135.1376146788991,0.7339449541284404,0.0
1760282390.5754843,442,-0.5893186813186814,1.6673406593406594,162.13450549450553,119.20610687022901,195.4198473282443,0.0,2271.009174311927,158.6238532110092,24.220183486238533,0.0
1760282390.5861945,443,-0.4815164835164835,1.688901098901099,151.04525274725276,115.29770992366412,197.3740458015267,0.0,2329.724770642202,135.1376146788991,0.7339449541284404,0.0
1760282390.607463,444,-0.5030769230769231,1.7463956043956046,165.8429010989011,113.34351145038168,183.6946564885496,0.0,2388.440366972477,135.1376146788991,47.706422018348626,0.0
1760282390.6392612,445,-0.5677582417582419,1.7320219780219783,147.34404395604398,113.34351145038168,195.4198473282443,0.0,2447.1559633027523,88.1651376146789,24.220183486238533,0.0
1760282390.64999,446,-0.5677582417582419,1.8182637362637364,154.74646153846155,109.43511450381679,197.3740458015267,0.0,2505.8715596330276,135.1376146788991,-22.752293577981654,0.0
1760282390.6712708,447,-0.5174505494505495,1.6745274725274726,154.73208791208793,107.48091603053435,197.3740458015267,0.0,2564.5871559633024,111.65137614678899,24.220183486238533,0.0
1760282390.6819968,448,-0.5318241758241758,1.7104615384615385,156.54316483516484,97.70992366412214,201.2824427480916,0.0,2623.3027522935777,111.65137614678899,24.220183486238533,0.0
1760282390.7031012,449,-0.5533846153846155,1.7463956043956046,158.39736263736265,109.43511450381679,195.4198473282443,0.0,2682.018348623853,135.1376146788991,71.19266055045873,0.0
1760282390.734438,450,-0.5102637362637363,1.8038901098901101,165.8357142857143,127.02290076335878,199.32824427480915,0.0,2740.733944954128,111.65137614678899,24.220183486238533,0.0
1760282390.7451103,451,-0.3737142857142858,1.6385934065934065,167.5821098901099,113.34351145038168,209.09923664122138,0.0,2799.4495412844035,111.65137614678899,-46.23853211009175,0.0
1760282390.7664232,452,-0.459956043956044,1.6601538461538463,147.30092307692308,109.43511450381679,195.4198473282443,0.0,2858.1651376146788,111.65137614678899,-22.752293577981654,0.0
1760282390.7981944,453,-0.5533846153846155,1.7463956043956046,156.63659340659342,101.61832061068702,205.1908396946565,0.0,2916.880733944954,88.1651376146789,0.7339449541284404,0.0
1760282390.8088617,454,-0.5030769230769231,1.6817142857142857,151.05962637362637,99.66412213740458,189.55725190839695,0.0,2975.5963302752293,135.1376146788991,0.7339449541284404,0.0
1760282390.8302462,455,-0.4024615384615385,1.6457802197802198,145.53296703296704,103.57251908396947,199.32824427480915,0.0,-2978.165137614679,135.1376146788991,47.706422018348626,0.0
1760282390.8409772,456,-0.5102637362637363,1.767956043956044,156.63659340659342,105.52671755725191,187.6030534351145,0.0,-2919.449541284404,88.1651376146789,-22.752293577981654,0.0
1760282390.8623455,457,-0.5246373626373626,1.7463956043956046,151.02369230769233,117.25190839694656,185.64885496183206,0.0,-2860.7339449541287,111.65137614678899,24.220183486238533,0.0
1760282390.8941545,458,-0.43839560439560443,1.7032747252747253,163.98151648351651,117.25190839694656,195.4198473282443,0.0,-2802.0183486238534,111.65137614678899,47.706422018348626,0.0
1760282390.9048705,459,-0.539010989010989,1.724835164835165,162.15606593406596,103.57251908396947,193.46564885496184,0.0,-2743.302752293578,135.1376146788991,24.220183486238533,0.0
1760282390.9261022,460,-0.48870329670329676,1.7104615384615385,162.09138461538464,115.29770992366412,197.3740458015267,0.0,-2684.587155963303,135.1376146788991,24.220183486238533,0.0
1760282390.9368496,461,-0.4815164835164835,1.724835164835165,145.59046153846154,107.48091603053435,199.32824427480915,0.0,-2625.8715596330276,111.65137614678899,24.220183486238533,0.0
1760282390.9581633,462,-0.5030769230769231,1.7535824175824177,165.74947252747253,105.52671755725191,197.3740458015267,0.0,-2567.1559633027523,88.1651376146789,0.7339449541284404,0.0
1760282390.990005,463,-0.5893186813186814,1.7104615384615385,143.67876923076923,111.38931297709924,197.3740458015267,0.0,-2508.440366972477,135.1376146788991,0.7339449541284404,0.0
1760282391.0006633,464,-0.5246373626373626,1.7176483516483516,162.04107692307696,113.34351145038168,203.23664122137404,0.0,-2449.7247706422017,135.1376146788991,47.706422018348626,0.0
1760282391.0220037,465,-0.5821318681318681,1.6529670329670332,162.21356043956047,111.38931297709924,201.2824427480916,0.0,-2391.0091743119265,135.1376146788991,0.7339449541284404,0.0
1760282391.0537894,466,-0.6036923076923078,1.7176483516483516,162.18481318681322,103.57251908396947,193.46564885496184,0.0,-2332.2935779816517,111.65137614678899,71.19266055045873,0.0
1760282391.0645359,467,-0.4527692307692308,1.6745274725274726,160.26593406593406,103.57251908396947,195.4198473282443,0.0,-2273.5779816513764,135.1376146788991,24.220183486238533,0.0
1760282391.0859113,468,-0.5605714285714286,1.8182637362637364,162.14169230769232,103.57251908396947,185.64885496183206,0.0,-2214.862385321101,135.1376146788991,24.220183486238533,0.0
1760282391.0966263,469,-0.4958901098901099,1.609846153846154,160.2371868131868,111.38931297709924,197.3740458015267,0.0,-2156.146788990826,88.1651376146789,24.220183486238533,0.0
1760282391.1178784,470,-0.5605714285714286,1.6960879120879122,162.09857142857146,107.48091603053435,199.32824427480915,0.0,-2097.4311926605506,135.1376146788991,-22.752293577981654,0.0
1760282391.149792,471,-0.46714285714285714,1.6960879120879122,163.98151648351651,101.61832061068702,201.2824427480916,0.0,-2038.7155963302753,158.6238532110092,47.706422018348626,0.0
1760282391.1605794,472,-0.42402197802197805,1.7392087912087915,163.9312087912088,117.25190839694656,205.1908396946565,0.0,-1980.0,111.65137614678899,0.7339449541284404,0.0
1760282391.181883,473,-0.43120879120879124,1.7823296703296703,152.89945054945056,107.48091603053435,197.3740458015267,0.0,-1921.2844036697247,135.1376146788991,-22.752293577981654,0.0
1760282391.192613,474,-0.5246373626373626,1.7751428571428571,158.40454945054947,113.34351145038168,197.3740458015267,0.0,-1862.5688073394497,158.6238532110092,-22.752293577981654,0.0
1760282391.213892,475,-0.5605714285714286,1.6457802197802198,156.63659340659342,111.38931297709924,195.4198473282443,0.0,-1803.8532110091744,111.65137614678899,47.706422018348626,0.0
1760282391.245769,476,-0.5605714285714286,1.6242197802197802,162.13450549450553,115.29770992366412,199.32824427480915,0.0,-1745.1376146788991,88.1651376146789,24.220183486238533,0.0
1760282391.2564664,477,-0.5893186813186814,1.6385934065934065,147.38716483516484,111.38931297709924,201.2824427480916,0.0,-1686.4220183486239,111.65137614678899,0.7339449541284404,0.0
1760282391.2778795,478,-0.46714285714285714,1.688901098901099,154.69615384615386,109.43511450381679,191.5114503816794,0.0,-1627.7064220183486,158.6238532110092,0.7339449541284404,0.0
1760282391.3098433,479,-0.4958901098901099,1.6314065934065933,158.40454945054947,130.93129770992365,197.3740458015267,0.0,-1568.9908256880735,158.6238532110092,24.220183486238533,0.0
1760282391.3206208,480,-0.46714285714285714,1.7104615384615385,162.16325274725278,105.52671755725191,201.2824427480916,0.0,-1510.2752293577983,135.1376146788991,0.7339449541284404,0.0
1760282391.3419454,481,-0.459956043956044,1.7607692307692309,158.41892307692308,109.43511450381679,197.3740458015267,0.0,-1451.559633027523,111.65137614678899,0.7339449541284404,0.0
1760282391.3525927,482,-0.5533846153846155,1.609846153846154,162.03389010989014,101.61832061068702,191.5114503816794,0.0,-1392.8440366972477,111.65137614678899,0.7339449541284404,0.0
1760282391.3737938,483,-0.5102637362637363,1.7104615384615385,160.18687912087913,115.29770992366412,205.1908396946565,0.0,-1334.1284403669724,158.6238532110092,24.220183486238533,0.0
1760282391.3845935,484,-0.5533846153846155,1.7104615384615385,156.53597802197802,101.61832061068702,199.32824427480915,0.0,-1275.4128440366974,135.1376146788991,24.220183486238533,0.0
1760282391.4059045,485,-0.5533846153846155,1.767956043956044,163.90964835164837,107.48091603053435,187.6030534351145,0.0,-1216.697247706422,64.6788990825688,24.220183486238533,0.0
1760282391.4377508,486,-0.5677582417582419,1.8326373626373627,162.10575824175828,111.38931297709924,203.23664122137404,0.0,-1157.9816513761468,111.65137614678899,47.706422018348626,0.0
1760282391.4484904,487,-0.5246373626373626,1.6960879120879122,158.4836043956044,103.57251908396947,201.2824427480916,0.0,-1099.2660550458716,158.6238532110092,0.7339449541284404,0.0
1760282391.4697835,488,-0.5821318681318681,1.7607692307692309,173.1447032967033,109.43511450381679,199.32824427480915,0.0,-1040.5504587155963,88.1651376146789,-22.752293577981654,0.0
1760282391.5016863,489,-0.539010989010989,1.617032967032967,145.54734065934068,103.57251908396947,201.2824427480916,0.0,-981.8348623853211,111.65137614678899,0.7339449541284404,0.0
1760282391.5123916,490,-0.43839560439560443,1.6601538461538463,165.87164835164836,103.57251908396947,187.6030534351145,0.0,-923.1192660550458,135.1376146788991,47.706422018348626,0.0
1760282391.533322,491,1.3511208791208793,0.0574945054945055,162.0195164835165,115.29770992366412,205.1908396946565,0.0,-864.4036697247707,111.65137614678899,24.220183486238533,0.0
1760282391.5438275,492,-0.39527472527472535,1.7104615384615385,138.108989010989,107.48091603053435,199.32824427480915,0.0,-805.6880733944954,88.1651376146789,0.7339449541284404,0.0
1760282391.5651946,493,-0.5102637362637363,1.6817142857142857,158.39017582417583,107.48091603053435,203.23664122137404,0.0,-746.9724770642201,135.1376146788991,24.220183486238533,0.0
1760282391.5969777,494,-0.539010989010989,1.7392087912087915,158.43329670329672,111.38931297709924,179.78625954198472,0.0,-688.256880733945,135.1376146788991,24.220183486238533,0.0
1760282391.607739,495,-0.4743296703296704,1.6745274725274726,165.69197802197803,105.52671755725191,189.55725190839695,0.0,-629.5412844036697,111.65137614678899,47.706422018348626,0.0
1760282391.6290345,496,-0.5030769230769231,1.8326373626373627,156.5287912087912,99.66412213740458,193.46564885496184,0.0,-570.8256880733945,111.65137614678899,-22.752293577981654,0.0
1760282391.6399045,497,-0.5246373626373626,1.6529670329670332,162.13450549450553,109.43511450381679,189.55725190839695,0.0,-512.1100917431193,111.65137614678899,-22.752293577981654,0.0
1760282391.6611757,498,-0.5318241758241758,1.724835164835165,151.1171208791209,111.38931297709924,195.4198473282443,0.0,-453.39449541284404,111.65137614678899,24.220183486238533,0.0
1760282391.6720405,499,-0.539010989010989,1.6960879120879122,165.8429010989011,117.25190839694656,191.5114503816794,0.0,-394.6788990825688,135.1376146788991,47.706422018348626,0.0
1760282391.7038057,500,-0.48870329670329676,1.7392087912087915,162.05545054945057,109.43511450381679,197.3740458015267,0.0,-335.96330275229354,135.1376146788991,24.220183486238533,0.0
1760282391.7356086,501,-0.6036923076923078,1.8038901098901101,167.61085714285716,117.25190839694656,191.5114503816794,0.0,-277.2477064220184,135.1376146788991,0.7339449541284404,0.0
1760282391.746252,502,-0.5030769230769231,1.7607692307692309,156.6294065934066,111.38931297709924,197.3740458015267,0.0,-218.53211009174314,135.1376146788991,-22.752293577981654,0.0
1760282391.7675807,503,-0.5533846153846155,1.7320219780219783,151.10993406593408,111.38931297709924,187.6030534351145,0.0,-159.8165137614679,135.1376146788991,24.220183486238533,0.0
1760282391.788863,504,-0.5461978021978022,1.6385934065934065,156.47848351648352,111.38931297709924,201.2824427480916,0.0,-101.10091743119266,111.65137614678899,0.7339449541284404,0.0
1760282391.7997448,505,-0.5821318681318681,1.7535824175824177,154.68178021978022,99.66412213740458,197.3740458015267,0.0,-42.38532110091743,111.65137614678899,24.220183486238533,0.0
1760282391.8316057,506,-0.5174505494505495,1.7032747252747253,167.72584615384616,127.02290076335878,193.46564885496184,0.0,16.3302752293578,111.74311926605505,0.7339449541284404,0.0
1760282391.842301,507,-0.43120879120879124,1.7104615384615385,152.9353846153846,125.06870229007633,207.14503816793894,0.0,75.04587155963303,135.22935779816515,-22.752293577981654,0.0
1760282391.8635726,508,-0.5174505494505495,1.7176483516483516,151.09556043956044,113.34351145038168,205.1908396946565,0.0,133.76146788990826,135.22935779816515,0.7339449541284404,0.0
1760282391.8954868,509,-0.5965054945054945,1.7463956043956046,156.5216043956044,113.34351145038168,193.46564885496184,0.0,192.47706422018348,135.22935779816515,71.19266055045873,0.0
1760282391.9062219,510,-0.4024615384615385,1.8326373626373627,162.1273186813187,107.48091603053435,201.2824427480916,0.0,251.19266055045873,158.71559633027522,24.220183486238533,0.0
1760282391.9275756,511,-0.5677582417582419,1.767956043956044,160.36654945054946,113.34351145038168,209.09923664122138,0.0,309.908256880734,135.22935779816515,71.19266055045873,0.0
1760282391.9381368,512,-0.48870329670329676,1.6745274725274726,149.20542857142857,132.8854961832061,191.5114503816794,0.0,368.6238532110092,111.74311926605505,-22.752293577981654,0.0
1760282391.958888,513,-0.5030769230769231,1.6601538461538463,160.15813186813187,107.48091603053435,205.1908396946565,0.0,427.33944954128435,135.22935779816515,24.220183486238533,0.0
1760282391.9799433,514,-0.4096483516483516,1.6817142857142857,160.19406593406592,105.52671755725191,197.3740458015267,0.0,486.0550458715596,88.25688073394495,-22.752293577981654,0.0
1760282391.990666,515,-0.459956043956044,1.8182637362637364,160.37373626373625,107.48091603053435,197.3740458015267,0.0,544.7706422018348,135.22935779816515,24.220183486238533,0.0
1760282392.0120327,516,-0.5893186813186814,1.7463956043956046,163.9312087912088,117.25190839694656,209.09923664122138,0.0,603.4862385321101,135.22935779816515,24.220183486238533,0.0
1760282392.043898,517,-0.4743296703296704,1.609846153846154,152.98569230769232,115.29770992366412,199.32824427480915,0.0,662.2018348623853,135.22935779816515,0.7339449541284404,0.0
1760282392.0546973,518,-0.4024615384615385,1.7535824175824177,167.6899120879121,111.38931297709924,195.4198473282443,0.0,720.9174311926605,111.74311926605505,0.7339449541284404,0.0
1760282392.0759447,519,-0.5174505494505495,1.7032747252747253,158.47641758241758,113.34351145038168,199.32824427480915,0.0,779.6330275229358,111.74311926605505,0.7339449541284404,0.0
1760282392.1078856,520,-0.5030769230769231,1.6385934065934065,141.88206593406593,113.34351145038168,207.14503816793894,0.0,838.348623853211,64.77064220183486,0.7339449541284404,0.0
1760282392.1187181,521,-0.44558241758241757,1.7104615384615385,151.05243956043958,107.48091603053435,197.3740458015267,0.0,897.0642201834863,135.22935779816515,-22.752293577981654,0.0
1760282392.1399598,522,-0.5821318681318681,1.7607692307692309,163.83778021978023,107.48091603053435,209.09923664122138,0.0,955.7798165137614,111.74311926605505,24.220183486238533,0.0
1760282392.1507483,523,-0.3809010989010989,1.7967032967032968,151.02369230769233,119.20610687022901,193.46564885496184,0.0,1014.4954128440367,182.20183486238534,24.220183486238533,0.0
1760282392.1717114,524,-0.4527692307692308,1.8038901098901101,151.05243956043958,107.48091603053435,201.2824427480916,0.0,1073.2110091743118,88.25688073394495,47.706422018348626,0.0
1760282392.1824257,525,-0.5030769230769231,1.8038901098901101,147.33685714285716,111.38931297709924,199.32824427480915,0.0,1131.926605504587,88.25688073394495,0.7339449541284404,0.0
1760282392.203761,526,-0.539010989010989,1.6314065934065933,150.98775824175826,109.43511450381679,187.6030534351145,0.0,1190.6422018348624,135.22935779816515,0.7339449541284404,0.0
1760282392.235508,527,-0.539010989010989,1.7392087912087915,163.95276923076926,123.1145038167939,189.55725190839695,0.0,1249.3577981651376,135.22935779816515,-22.752293577981654,0.0
1760282392.2461615,528,-0.5318241758241758,1.6817142857142857,160.18687912087913,119.20610687022901,193.46564885496184,0.0,1308.0733944954127,88.25688073394495,47.706422018348626,0.0
1760282392.2674491,529,-0.3737142857142858,1.6457802197802198,162.09857142857146,103.57251908396947,201.2824427480916,0.0,1366.788990825688,111.74311926605505,24.220183486238533,0.0
1760282392.2992907,530,-0.5893186813186814,1.7823296703296703,151.13868131868134,113.34351145038168,193.46564885496184,0.0,1425.5045871559632,111.74311926605505,24.220183486238533,0.0
1760282392.310063,531,-0.5533846153846155,1.7895164835164834,165.76384615384617,109.43511450381679,189.55725190839695,0.0,1484.2201834862385,111.74311926605505,47.706422018348626,0.0
1760282392.3313158,532,-0.4815164835164835,1.7895164835164834,162.1273186813187,113.34351145038168,187.6030534351145,0.0,1542.9357798165138,88.25688073394495,24.220183486238533,0.0
1760282392.342145,533,-0.46714285714285714,1.724835164835165,160.2371868131868,113.34351145038168,203.23664122137404,0.0,1601.651376146789,111.74311926605505,24.220183486238533,0.0
1760282392.3950045,534,-0.4958901098901099,1.6817142857142857,163.9743296703297,103.57251908396947,207.14503816793894,0.0,1660.3669724770643,158.71559633027522,0.7339449541284404,0.0
1760282392.4057024,535,-0.4096483516483516,1.6960879120879122,162.18481318681322,105.52671755725191,193.46564885496184,0.0,1719.0825688073396,111.74311926605505,71.19266055045873,0.0
1760282392.41631,536,1.3583076923076924,0.0,158.43329670329672,119.20610687022901,201.2824427480916,0.0,1777.798165137615,158.71559633027522,24.220183486238533,0.0
1760282392.4271646,537,-0.48870329670329676,1.5667252747252747,162.10575824175828,115.29770992366412,199.32824427480915,0.0,1836.5137614678902,111.74311926605505,47.706422018348626,0.0
1760282392.4590092,538,-0.4958901098901099,1.6960879120879122,149.19105494505496,117.25190839694656,197.3740458015267,0.0,1895.2293577981652,111.74311926605505,-22.752293577981654,0.0
1760282392.4697695,539,-0.6252527472527473,1.7176483516483516,162.0698241758242,113.34351145038168,197.3740458015267,0.0,1953.9449541284405,135.22935779816515,24.220183486238533,0.0
1760282392.491121,540,-0.6180659340659341,1.5667252747252747,167.64679120879123,99.66412213740458,209.09923664122138,0.0,2012.6605504587158,111.74311926605505,71.19266055045873,0.0
1760282392.5018528,541,-0.4958901098901099,1.6601538461538463,145.51859340659342,107.48091603053435,197.3740458015267,0.0,2071.376146788991,111.74311926605505,0.7339449541284404,0.0
1760282392.523173,542,-0.42402197802197805,1.5882857142857145,156.60784615384617,107.48091603053435,191.5114503816794,0.0,2130.091743119266,135.22935779816515,47.706422018348626,0.0
1760282392.555001,543,-0.4024615384615385,1.7320219780219783,152.94975824175825,105.52671755725191,197.3740458015267,0.0,2188.8073394495414,111.74311926605505,47.706422018348626,0.0
1760282392.5658102,544,-0.6180659340659341,1.6026593406593408,152.8203956043956,109.43511450381679,203.23664122137404,0.0,2247.5229357798166,135.22935779816515,24.220183486238533,0.0
1760282392.587153,545,-0.539010989010989,1.617032967032967,152.91382417582417,111.38931297709924,197.3740458015267,0.0,2306.238532110092,64.77064220183486,0.7339449541284404,0.0
1760282392.5979428,546,-0.42402197802197805,1.8182637362637364,154.81114285714287,121.16030534351145,187.6030534351145,0.0,2364.954128440367,135.22935779816515,47.706422018348626,0.0
1760282392.6192787,547,-0.44558241758241757,1.767956043956044,162.08419780219782,113.34351145038168,195.4198473282443,0.0,2423.6697247706425,158.71559633027522,0.7339449541284404,0.0
1760282392.651222,548,-0.4815164835164835,1.688901098901099,167.6324175824176,111.38931297709924,203.23664122137404,0.0,2482.3853211009177,135.22935779816515,24.220183486238533,0.0
1760282392.6619396,549,-0.42402197802197805,1.7895164835164834,160.33061538461538,93.80152671755725,195.4198473282443,0.0,2541.1009174311926,111.74311926605505,-22.752293577981654,0.0
1760282392.6832812,550,-0.5030769230769231,1.6242197802197802,158.56265934065934,93.80152671755725,203.23664122137404,0.0,2599.816513761468,88.25688073394495,-22.752293577981654,0.0
1760282392.6940594,551,-0.41683516483516486,1.7895164835164834,160.3378021978022,117.25190839694656,197.3740458015267,0.0,2658.532110091743,158.71559633027522,0.7339449541284404,0.0
1760282392.715182,552,-0.539010989010989,1.7176483516483516,165.70635164835167,105.52671755725191,203.23664122137404,0.0,2717.2477064220184,111.74311926605505,0.7339449541284404,0.0
1760282392.7467344,553,-0.5461978021978022,1.7392087912087915,158.43329670329672,109.43511450381679,199.32824427480915,0.0,2775.963302752293,111.74311926605505,24.220183486238533,0.0
1760282392.7575164,554,-0.459956043956044,1.7607692307692309,158.56265934065934,109.43511450381679,191.5114503816794,0.0,2834.6788990825685,111.74311926605505,24.220183486238533,0.0
1760282392.778916,555,-0.5533846153846155,1.6817142857142857,163.9887032967033,103.57251908396947,195.4198473282443,0.0,2893.3944954128438,135.22935779816515,24.220183486238533,0.0
1760282392.8107677,556,1.5092307692307694,0.02874725274725275,139.97037362637363,117.25190839694656,203.23664122137404,0.0,2952.110091743119,88.25688073394495,24.220183486238533,0.0
1760282392.8214557,557,-0.6468131868131869,1.7607692307692309,158.49079120879122,101.61832061068702,191.5114503816794,0.0,-3001.651376146789,88.25688073394495,24.220183486238533,0.0
1760282392.842756,558,-0.43120879120879124,1.7607692307692309,165.75665934065935,113.34351145038168,191.5114503816794,0.0,-2942.935779816514,135.22935779816515,0.7339449541284404,0.0
1760282392.8535388,559,-0.5102637362637363,1.7463956043956046,162.09857142857146,107.48091603053435,203.23664122137404,0.0,-2884.2201834862385,135.22935779816515,24.220183486238533,0.0
1760282392.8748584,560,-0.5461978021978022,1.7176483516483516,167.66116483516484,115.29770992366412,207.14503816793894,0.0,-2825.5045871559632,111.74311926605505,24.220183486238533,0.0
1760282392.9067564,561,-0.5605714285714286,1.7392087912087915,165.886021978022,113.34351145038168,197.3740458015267,0.0,-2766.7889908256884,135.22935779816515,47.706422018348626,0.0
1760282392.9175215,562,-0.574945054945055,1.7751428571428571,160.2803076923077,107.48091603053435,197.3740458015267,0.0,-2708.073394495413,111.74311926605505,47.706422018348626,0.0
1760282392.928355,563,-0.48870329670329676,1.6745274725274726,152.8132087912088,111.38931297709924,199.32824427480915,0.0,-2649.357798165138,135.22935779816515,0.7339449541284404,0.0
1760282392.9601853,564,-0.3305934065934066,1.7320219780219783,160.31624175824174,121.16030534351145,197.3740458015267,0.0,-2590.6422018348626,88.25688073394495,-22.752293577981654,0.0
1760282392.9709089,565,-0.5030769230769231,1.7320219780219783,156.58628571428574,113.34351145038168,203.23664122137404,0.0,-2531.9266055045873,88.25688073394495,-22.752293577981654,0.0
1760282392.9922564,566,-0.4958901098901099,1.7176483516483516,160.2946813186813,107.48091603053435,197.3740458015267,0.0,-2473.211009174312,158.71559633027522,47.706422018348626,0.0
1760282393.0241554,567,-0.5246373626373626,1.8038901098901101,145.53296703296704,101.61832061068702,191.5114503816794,0.0,-2414.4954128440368,135.22935779816515,47.706422018348626,0.0
1760282393.0348952,568,-0.5893186813186814,1.7823296703296703,167.6324175824176,113.34351145038168,193.46564885496184,0.0,-2355.7798165137615,135.22935779816515,-22.752293577981654,0.0
1760282393.0562196,569,-0.6180659340659341,1.6601538461538463,163.95995604395605,113.34351145038168,189.55725190839695,0.0,-2297.064220183486,135.22935779816515,0.7339449541284404,0.0
1760282393.0669842,570,-0.6036923076923078,1.7607692307692309,151.05243956043958,101.61832061068702,193.46564885496184,0.0,-2238.348623853211,135.22935779816515,47.706422018348626,0.0
1760282393.0884407,571,-0.459956043956044,1.7967032967032968,167.57492307692308,101.61832061068702,193.46564885496184,0.0,-2179.6330275229357,135.22935779816515,47.706422018348626,0.0
1760282393.1204476,572,-0.5102637362637363,1.8038901098901101,158.36142857142858,117.25190839694656,195.4198473282443,0.0,-2120.917431192661,158.71559633027522,0.7339449541284404,0.0
1760282393.13119,573,-0.48870329670329676,1.8110769230769233,171.33362637362637,111.38931297709924,183.6946564885496,0.0,-2062.2018348623856,111.74311926605505,0.7339449541284404,0.0
1760282393.152549,574,-0.5030769230769231,1.7463956043956046,163.93839560439562,105.52671755725191,195.4198473282443,0.0,-2003.48623853211,135.22935779816515,47.706422018348626,0.0
1760282393.184298,575,-0.5677582417582419,1.7967032967032968,143.73626373626374,117.25190839694656,197.3740458015267,0.0,-1944.770642201835,88.25688073394495,24.220183486238533,0.0
1760282393.1949892,576,-0.4958901098901099,1.7535824175824177,165.7279120879121,111.38931297709924,193.46564885496184,0.0,-1886.0550458715597,111.74311926605505,118.16513761467891,0.0
1760282393.2163877,577,-0.4958901098901099,1.767956043956044,158.47641758241758,117.25190839694656,193.46564885496184,0.0,-1827.3394495412845,111.74311926605505,47.706422018348626,0.0
1760282393.2271726,578,1.4445494505494507,0.05030769230769231,169.47224175824175,107.48091603053435,207.14503816793894,0.0,-1768.6238532110092,111.74311926605505,0.7339449541284404,0.0
1760282393.248541,579,-0.574945054945055,1.7463956043956046,156.43536263736266,105.52671755725191,201.2824427480916,0.0,-1709.908256880734,135.22935779816515,24.220183486238533,0.0
1760282393.2698154,580,-0.5174505494505495,1.7895164835164834,160.23,109.43511450381679,199.32824427480915,0.0,-1651.1926605504589,135.22935779816515,47.706422018348626,0.0
1760282393.280584,581,-0.574945054945055,1.7823296703296703,156.57909890109892,105.52671755725191,207.14503816793894,0.0,-1592.4770642201836,88.25688073394495,-22.752293577981654,0.0
1760282393.3018932,582,-0.459956043956044,1.7535824175824177,160.31624175824174,107.48091603053435,191.5114503816794,0.0,-1533.7614678899083,135.22935779816515,24.220183486238533,0.0
1760282393.3337665,583,-0.36652747252747253,1.7751428571428571,152.97131868131868,105.52671755725191,193.46564885496184,0.0,-1475.045871559633,135.22935779816515,47.706422018348626,0.0
1760282393.3445456,584,-0.3880879120879121,1.8326373626373627,163.85215384615387,113.34351145038168,189.55725190839695,0.0,-1416.3302752293578,135.22935779816515,-22.752293577981654,0.0
1760282393.3659098,585,-0.35215384615384615,1.7751428571428571,162.19918681318683,109.43511450381679,205.1908396946565,0.0,-1357.6146788990827,111.74311926605505,0.7339449541284404,0.0
1760282393.376692,586,-0.46714285714285714,1.8110769230769233,151.1171208791209,103.57251908396947,197.3740458015267,0.0,-1298.8990825688074,111.74311926605505,71.19266055045873,0.0
1760282393.3980148,587,-0.539010989010989,1.7823296703296703,158.28237362637364,113.34351145038168,193.46564885496184,0.0,-1240.1834862385322,88.25688073394495,0.7339449541284404,0.0
1760282393.4297721,588,-0.4815164835164835,1.7463956043956046,152.8203956043956,101.61832061068702,201.2824427480916,0.0,-1181.467889908257,135.22935779816515,47.706422018348626,0.0
1760282393.440543,589,-0.5821318681318681,1.8254505494505495,162.0698241758242,113.34351145038168,193.46564885496184,0.0,-1122.7522935779816,111.74311926605505,0.7339449541284404,0.0
1760282393.4619064,590,1.3942417582417583,0.06468131868131868,149.226989010989,105.52671755725191,193.46564885496184,0.0,-1064.0366972477063,135.22935779816515,24.220183486238533,0.0
1760282393.493836,591,-0.4958901098901099,1.724835164835165,152.85632967032967,115.29770992366412,199.32824427480915,0.0,-1005.3211009174312,158.71559633027522,47.706422018348626,0.0
1760282393.5046344,592,1.3583076923076924,0.02874725274725275,162.25668131868133,103.57251908396947,195.4198473282443,0.0,-946.605504587156,111.74311926605505,0.7339449541284404,0.0
1760282393.5259628,593,-0.36652747252747253,1.6457802197802198,143.75063736263738,107.48091603053435,201.2824427480916,0.0,-887.8899082568807,135.22935779816515,24.220183486238533,0.0
1760282393.5471437,594,-0.6036923076923078,1.609846153846154,160.25156043956045,111.38931297709924,195.4198473282443,0.0,-829.1743119266055,88.25688073394495,0.7339449541284404,0.0
1760282393.5578773,595,-0.5030769230769231,1.7176483516483516,158.41892307692308,111.38931297709924,197.3740458015267,0.0,-770.4587155963303,111.74311926605505,24.220183486238533,0.0
1760282393.579183,596,1.2936263736263738,0.07186813186813187,160.30186813186813,113.34351145038168,205.1908396946565,0.0,-711.743119266055,111.74311926605505,24.220183486238533,0.0
1760282393.5899796,597,1.3870549450549452,0.03593406593406594,156.58628571428574,107.48091603053435,201.2824427480916,0.0,-653.0275229357799,64.77064220183486,0.7339449541284404,0.0
1760282393.6217005,598,1.3870549450549452,0.03593406593406594,171.23301098901098,113.34351145038168,191.5114503816794,0.0,-594.3119266055046,88.25688073394495,71.19266055045873,0.0
1760282393.6534963,599,-0.4815164835164835,1.7535824175824177,169.46505494505493,109.43511450381679,193.46564885496184,0.0,-535.5963302752293,111.74311926605505,0.7339449541284404,0.0
1760282393.664205,600,-0.5533846153846155,1.767956043956044,165.66323076923078,107.48091603053435,189.55725190839695,0.0,-476.8807339449541,111.74311926605505,24.220183486238533,0.0
1760282393.675027,601,-0.4815164835164835,1.7176483516483516,152.97131868131868,111.38931297709924,185.64885496183206,0.0,-418.1651376146789,111.74311926605505,47.706422018348626,0.0
1760282393.6858966,602,-0.4743296703296704,1.8110769230769233,167.60367032967034,101.61832061068702,207.14503816793894,0.0,-359.44954128440367,88.25688073394495,24.220183486238533,0.0
1760282393.7178311,603,-0.4527692307692308,1.5882857142857145,152.84195604395606,113.34351145038168,211.05343511450383,0.0,-300.73394495412845,111.74311926605505,24.220183486238533,0.0
1760282393.739163,604,-0.5605714285714286,1.7392087912087915,154.6674065934066,109.43511450381679,185.64885496183206,0.0,-242.01834862385323,135.22935779816515,24.220183486238533,0.0
1760282393.7500281,605,-0.539010989010989,1.617032967032967,163.93839560439562,117.25190839694656,205.1908396946565,0.0,-183.30275229357798,88.25688073394495,-22.752293577981654,0.0
1760282393.7712264,606,-0.48870329670329676,1.6601538461538463,158.31830769230768,117.25190839694656,195.4198473282443,0.0,-124.58715596330275,135.22935779816515,47.706422018348626,0.0
1760282393.8029735,607,-0.5318241758241758,1.7967032967032968,156.55753846153848,109.43511450381679,199.32824427480915,0.0,-65.87155963302752,135.22935779816515,47.706422018348626,0.0
1760282393.8136911,608,-0.46714285714285714,1.7176483516483516,163.92402197802198,119.20610687022901,189.55725190839695,0.0,-7.155963302752294,88.25688073394495,24.220183486238533,0.0
1760282393.834983,609,-0.6468131868131869,1.6673406593406594,167.56773626373626,109.43511450381679,205.1908396946565,0.0,51.559633027522935,111.8348623853211,47.706422018348626,0.0
1760282393.8456845,610,-0.4958901098901099,1.8182637362637364,151.1746153846154,109.43511450381679,197.3740458015267,0.0,110.27522935779817,135.32110091743118,71.19266055045873,0.0
1760282393.8669598,611,-0.6036923076923078,1.8182637362637364,156.57909890109892,111.38931297709924,197.3740458015267,0.0,168.9908256880734,135.32110091743118,0.7339449541284404,0.0
1760282393.8987703,612,-0.654,1.7535824175824177,149.20542857142857,99.66412213740458,193.46564885496184,0.0,227.70642201834863,135.32110091743118,47.706422018348626,0.0
1760282393.9095073,613,-0.46714285714285714,1.724835164835165,163.94558241758244,107.48091603053435,189.55725190839695,0.0,286.42201834862385,111.8348623853211,0.7339449541284404,0.0
1760282393.9309278,614,-0.5030769230769231,1.7895164835164834,165.73509890109892,103.57251908396947,205.1908396946565,0.0,345.13761467889907,135.32110091743118,24.220183486238533,0.0
1760282393.9416664,615,-0.574945054945055,1.6457802197802198,152.8203956043956,109.43511450381679,199.32824427480915,0.0,403.8532110091743,135.32110091743118,47.706422018348626,0.0
1760282393.96299,616,-0.6108791208791209,1.8254505494505495,176.85309890109892,113.34351145038168,201.2824427480916,0.0,462.5688073394495,111.8348623853211,24.220183486238533,0.0
1760282393.9946492,617,-0.34496703296703296,1.7176483516483516,158.41173626373626,99.66412213740458,205.1908396946565,0.0,521.2844036697247,111.8348623853211,24.220183486238533,0.0
1760282394.0053551,618,-0.4527692307692308,1.7392087912087915,163.9743296703297,107.48091603053435,199.32824427480915,0.0,580.0,111.8348623853211,47.706422018348626,0.0
1760282394.0267417,619,-0.5461978021978022,1.7320219780219783,162.09138461538464,105.52671755725191,199.32824427480915,0.0,638.7155963302752,111.8348623853211,24.220183486238533,0.0
1760282394.058623,620,-0.5893186813186814,1.688901098901099,160.22281318681317,111.38931297709924,199.32824427480915,0.0,697.4311926605504,135.32110091743118,24.220183486238533,0.0
1760282394.0695622,621,-0.5102637362637363,1.7607692307692309,165.87883516483518,117.25190839694656,207.14503816793894,0.0,756.1467889908257,111.8348623853211,24.220183486238533,0.0
1760282394.0910296,622,-0.5605714285714286,1.7751428571428571,160.2803076923077,115.29770992366412,199.32824427480915,0.0,814.862385321101,64.86238532110092,0.7339449541284404,0.0
1760282394.1017542,623,-0.4743296703296704,1.7607692307692309,162.1201318681319,125.06870229007633,187.6030534351145,0.0,873.5779816513763,111.8348623853211,24.220183486238533,0.0
1760282394.1229699,624,1.3942417582417583,0.02156043956043956,167.61804395604395,103.57251908396947,203.23664122137404,0.0,932.2935779816513,158.80733944954127,24.220183486238533,0.0
1760282394.1547651,625,-0.5461978021978022,1.7032747252747253,158.39017582417583,109.43511450381679,201.2824427480916,0.0,991.0091743119265,158.80733944954127,24.220183486238533,0.0
1760282394.1655507,626,-0.4815164835164835,1.8182637362637364,151.05243956043958,101.61832061068702,191.5114503816794,0.0,1049.7247706422017,111.8348623853211,24.220183486238533,0.0
1760282394.1868472,627,-0.459956043956044,1.7607692307692309,173.11595604395606,117.25190839694656,203.23664122137404,0.0,1108.440366972477,111.8348623853211,24.220183486238533,0.0
1760282394.197692,628,-0.5318241758241758,1.8110769230769233,160.2946813186813,115.29770992366412,197.3740458015267,0.0,1167.1559633027523,135.32110091743118,24.220183486238533,0.0
1760282394.2189987,629,-0.5318241758241758,1.7104615384615385,156.60784615384617,107.48091603053435,195.4198473282443,0.0,1225.8715596330273,158.80733944954127,24.220183486238533,0.0
1760282394.2298646,630,-0.48870329670329676,1.724835164835165,156.4712967032967,113.34351145038168,189.55725190839695,0.0,1284.5871559633026,158.80733944954127,24.220183486238533,0.0
1760282394.261814,631,-0.4743296703296704,1.7823296703296703,151.04525274725276,117.25190839694656,185.64885496183206,0.0,1343.302752293578,135.32110091743118,24.220183486238533,0.0
1760282394.2937772,632,-0.43839560439560443,1.6960879120879122,158.4261098901099,117.25190839694656,203.23664122137404,0.0,1402.0183486238532,111.8348623853211,47.706422018348626,0.0
1760282394.3045762,633,-0.6036923076923078,1.7032747252747253,152.92819780219781,97.70992366412214,199.32824427480915,0.0,1460.7339449541284,88.34862385321101,47.706422018348626,0.0
1760282394.3258636,634,-0.5030769230769231,1.767956043956044,158.41892307692308,115.29770992366412,201.2824427480916,0.0,1519.4495412844037,135.32110091743118,-22.752293577981654,0.0
1760282394.3577375,635,-0.4815164835164835,1.7823296703296703,150.959010989011,107.48091603053435,201.2824427480916,0.0,1578.1651376146788,135.32110091743118,0.7339449541284404,0.0
1760282394.3685338,636,-0.5030769230769231,1.7176483516483516,158.39736263736265,107.48091603053435,201.2824427480916,0.0,1636.8807339449543,182.29357798165137,24.220183486238533,0.0
1760282394.389836,637,-0.5318241758241758,1.6817142857142857,160.2946813186813,109.43511450381679,199.32824427480915,0.0,1695.5963302752295,135.32110091743118,0.7339449541284404,0.0
1760282394.4006321,638,-0.5965054945054945,1.8254505494505495,154.75364835164837,119.20610687022901,193.46564885496184,0.0,1754.3119266055048,135.32110091743118,24.220183486238533,0.0
1760282394.4219716,639,-0.32340659340659345,1.7751428571428571,160.30186813186813,99.66412213740458,199.32824427480915,0.0,1813.0275229357799,111.8348623853211,-22.752293577981654,0.0
1760282394.4432979,640,-0.43120879120879124,1.7104615384615385,149.13356043956043,103.57251908396947,189.55725190839695,0.0,1871.7431192660551,135.32110091743118,0.7339449541284404,0.0
1760282394.4540782,641,-0.41683516483516486,1.7032747252747253,158.31830769230768,109.43511450381679,201.2824427480916,0.0,1930.4587155963304,135.32110091743118,47.706422018348626,0.0
1760282394.4753323,642,-0.5246373626373626,1.6385934065934065,154.7105274725275,101.61832061068702,199.32824427480915,0.0,1989.1743119266057,111.8348623853211,24.220183486238533,0.0
1760282394.4861057,643,-0.5821318681318681,1.8038901098901101,151.02369230769233,117.25190839694656,187.6030534351145,0.0,2047.889908256881,111.8348623853211,24.220183486238533,0.0
1760282394.5073867,644,-0.5246373626373626,1.7463956043956046,158.4261098901099,103.57251908396947,197.3740458015267,0.0,2106.6055045871562,135.32110091743118,47.706422018348626,0.0
1760282394.5392888,645,1.2792527472527473,0.0071868131868131875,158.41173626373626,109.43511450381679,201.2824427480916,0.0,2165.3211009174315,135.32110091743118,24.220183486238533,0.0
1760282394.5499768,646,-0.6180659340659341,1.7463956043956046,169.46505494505493,115.29770992366412,195.4198473282443,0.0,2224.036697247707,135.32110091743118,0.7339449541284404,0.0
1760282394.571244,647,-0.4958901098901099,1.724835164835165,156.6294065934066,109.43511450381679,191.5114503816794,0.0,2282.7522935779816,111.8348623853211,24.220183486238533,0.0
1760282394.6029975,648,-0.4743296703296704,1.5595384615384615,169.40756043956043,117.25190839694656,199.32824427480915,0.0,2341.467889908257,135.32110091743118,24.220183486238533,0.0
1760282394.6137726,649,-0.5461978021978022,1.7176483516483516,147.3656043956044,101.61832061068702,187.6030534351145,0.0,2400.183486238532,111.8348623853211,0.7339449541284404,0.0
1760282394.6351347,650,-0.5030769230769231,1.6026593406593408,167.76178021978023,103.57251908396947,197.3740458015267,0.0,2458.8990825688074,135.32110091743118,24.220183486238533,0.0
1760282394.6669178,651,-0.574945054945055,1.7032747252747253,160.19406593406592,107.48091603053435,195.4198473282443,0.0,2517.6146788990823,135.32110091743118,0.7339449541284404,0.0
1760282394.6776786,652,-0.5318241758241758,1.7535824175824177,167.66116483516484,121.16030534351145,193.46564885496184,0.0,2576.3302752293575,135.32110091743118,47.706422018348626,0.0
1760282394.6989558,653,-0.44558241758241757,1.724835164835165,160.25874725274724,117.25190839694656,207.14503816793894,0.0,2635.045871559633,111.8348623853211,0.7339449541284404,0.0
1760282394.7096727,654,-0.5030769230769231,1.7823296703296703,167.6970989010989,117.25190839694656,193.46564885496184,0.0,2693.761467889908,158.80733944954127,24.220183486238533,0.0
1760282394.731048,655,-0.39527472527472535,1.8038901098901101,167.6324175824176,109.43511450381679,203.23664122137404,0.0,2752.4770642201834,205.77981651376146,47.706422018348626,0.0
