timestamp,packet_id,accel_x,accel_y,accel_z,gyro_x,gyro_y,gyro_z,mag_x,mag_y,mag_z,battery
1760130045.2707224,0,-105.32274725274725,17.147736263736263,-7.301802197802198,-85.93129770992367,0.030534351145038167,-0.5343511450381679,21.100917431192663,-1759.1743119266057,-939.4495412844037,0.0
1760130045.30284,1,3.4065494505494507,119.58857142857143,152.31013186813186,15.717557251908397,15.603053435114504,9.427480916030534,-1691.0091743119267,-540.2752293577981,563.6697247706422,0.0
1760130045.3133585,2,1.5451648351648353,3.4065494505494507,-115.90892307692309,161.793893129771,15.725190839694656,15.587786259541986,113.48623853211008,-1385.6880733944954,-328.89908256880733,0.0
1760130045.334351,3,-128.64395604395605,-84.63191208791208,-58.87437362637363,0.007633587786259542,-97.21374045801527,22.12213740458015,-140.1834862385321,-1079.7247706422017,0.3669724770642202,0.0
1760130045.365907,4,-126.89756043956045,-73.59296703296704,-62.554021978021986,0.007633587786259542,-92.32824427480917,20.16793893129771,-116.69724770642202,-1079.7247706422017,0.3669724770642202,0.0
1760130045.3766582,5,-124.90681318681318,-77.27261538461539,-62.554021978021986,0.007633587786259542,-87.44274809160305,22.12213740458015,-116.69724770642202,-1056.2385321100917,0.3669724770642202,0.0
1760130045.397943,6,-121.20560439560441,-75.43279120879122,-62.554021978021986,0.007633587786259542,-82.55725190839695,22.12213740458015,-140.1834862385321,-1079.7247706422017,0.3669724770642202,0.0
1760130045.429638,7,-124.97868131868131,-79.11243956043957,-68.07349450549451,0.007633587786259542,-77.67175572519083,22.12213740458015,-140.1834862385321,-1079.7247706422017,0.3669724770642202,0.0
1760130045.440375,8,-134.04125274725274,-73.59296703296704,-66.23367032967033,0.007633587786259542,-72.78625954198473,22.12213740458015,-116.69724770642202,-1056.2385321100917,0.3669724770642202,0.0
1760130045.4616835,9,-121.19123076923078,-80.95226373626375,-51.515076923076926,0.007633587786259542,-67.90076335877863,20.16793893129771,-116.69724770642202,-1103.2110091743118,0.3669724770642202,0.0
1760130045.472362,10,-139.6900879120879,-64.39384615384616,-66.23367032967033,0.007633587786259542,-63.01526717557252,18.213740458015266,-116.69724770642202,-1103.2110091743118,0.3669724770642202,0.0
1760130045.4936814,11,-128.5720879120879,-77.27261538461539,-62.554021978021986,0.007633587786259542,-58.12977099236641,24.076335877862597,-116.69724770642202,-1032.7522935779816,0.3669724770642202,0.0
1760130045.5254295,12,-124.9714945054945,-77.27261538461539,-62.554021978021986,0.007633587786259542,-53.2442748091603,20.16793893129771,-140.1834862385321,-1103.2110091743118,0.3669724770642202,0.0
1760130045.5361469,13,-132.36672527472527,-69.91331868131869,-62.554021978021986,0.007633587786259542,-48.3587786259542,22.12213740458015,-140.1834862385321,-1056.2385321100917,0.3669724770642202,0.0
1760130045.5574265,14,-128.5720879120879,-90.15138461538461,-62.554021978021986,0.007633587786259542,-43.47328244274809,27.984732824427482,-140.1834862385321,-1056.2385321100917,0.3669724770642202,0.0
1760130045.5891862,15,-125.01461538461538,-80.95226373626375,-60.71419780219781,0.007633587786259542,-38.587786259541986,20.16793893129771,-116.69724770642202,-1009.2660550458716,0.3669724770642202,0.0
1760130045.599875,16,-126.69632967032967,-73.59296703296704,-64.39384615384616,0.007633587786259542,-33.70229007633588,24.076335877862597,-93.21100917431193,-1079.7247706422017,0.3669724770642202,0.0
1760130045.6212058,17,-135.93857142857144,-79.11243956043957,-80.95226373626375,0.007633587786259542,-28.81679389312977,20.16793893129771,-140.1834862385321,-1103.2110091743118,0.3669724770642202,0.0
1760130045.6319451,18,-134.14186813186814,-68.07349450549451,-58.87437362637363,0.007633587786259542,-23.931297709923665,20.16793893129771,-140.1834862385321,-1079.7247706422017,0.3669724770642202,0.0
1760130045.6531904,19,-143.37692307692308,-77.27261538461539,-60.71419780219781,0.007633587786259542,-19.045801526717558,20.16793893129771,-116.69724770642202,-1103.2110091743118,0.3669724770642202,0.0
1760130045.6743276,20,-135.95294505494508,-79.11243956043957,-64.39384615384616,0.007633587786259542,-14.16030534351145,22.12213740458015,-93.21100917431193,-1079.7247706422017,0.3669724770642202,0.0
1760130045.685041,21,-134.15624175824175,-75.43279120879122,-60.71419780219781,0.007633587786259542,-9.274809160305344,18.213740458015266,-163.6697247706422,-1032.7522935779816,0.3669724770642202,0.0
1760130045.7062252,22,-130.57720879120882,-75.43279120879122,-64.39384615384616,0.007633587786259542,-4.3893129770992365,22.12213740458015,-116.69724770642202,-1032.7522935779816,0.3669724770642202,0.0
1760130045.7378192,23,-137.81432967032967,-77.27261538461539,-68.07349450549451,0.007633587786259542,0.4961832061068702,24.083969465648856,-116.69724770642202,-1079.7247706422017,0.3669724770642202,0.0
1760130045.7484438,24,-143.34817582417583,-90.15138461538461,-62.554021978021986,0.007633587786259542,5.3816793893129775,22.129770992366414,-116.69724770642202,-1056.2385321100917,0.3669724770642202,0.0
1760130045.7696884,25,-139.59665934065933,-75.43279120879122,-73.59296703296704,0.007633587786259542,10.267175572519085,24.083969465648856,-163.6697247706422,-1079.7247706422017,0.3669724770642202,0.0
1760130045.7803442,26,-141.45804395604398,-84.63191208791208,-75.43279120879122,0.007633587786259542,15.15267175572519,22.129770992366414,-116.69724770642202,-1056.2385321100917,0.3669724770642202,0.0
1760130045.8014176,27,-123.1172967032967,-73.59296703296704,-53.3549010989011,0.007633587786259542,20.0381679389313,22.129770992366414,-163.6697247706422,-1079.7247706422017,0.3669724770642202,0.0
1760130045.833189,28,-130.49096703296703,-68.07349450549451,-60.71419780219781,0.007633587786259542,24.923664122137403,22.129770992366414,-116.69724770642202,-1079.7247706422017,0.3669724770642202,0.0
1760130045.8647704,29,-124.89962637362638,-73.59296703296704,-68.07349450549451,0.007633587786259542,29.80916030534351,24.083969465648856,-93.21100917431193,-1056.2385321100917,0.3669724770642202,0.0
1760130045.8752193,30,-119.40171428571429,-75.43279120879122,-58.87437362637363,0.007633587786259542,34.69465648854962,27.99236641221374,-116.69724770642202,-1079.7247706422017,0.3669724770642202,0.0
1760130045.8963494,31,-130.44065934065935,-71.75314285714286,-69.91331868131869,0.007633587786259542,39.58015267175573,20.17557251908397,-116.69724770642202,-1103.2110091743118,0.3669724770642202,0.0
1760130045.9281936,32,-121.21279120879122,-77.27261538461539,-60.71419780219781,0.007633587786259542,44.465648854961835,22.129770992366414,-140.1834862385321,-985.7798165137615,0.3669724770642202,0.0
1760130045.9388716,33,-130.48378021978024,-69.91331868131869,-58.87437362637363,0.007633587786259542,49.35114503816794,24.083969465648856,-69.72477064220183,-1056.2385321100917,0.3669724770642202,0.0
1760130045.9600987,34,-150.64997802197803,-77.27261538461539,-57.03454945054945,0.007633587786259542,54.23664122137404,24.083969465648856,-69.72477064220183,-1103.2110091743118,0.3669724770642202,0.0
1760130045.9707887,35,-121.20560439560441,-79.11243956043957,-64.39384615384616,0.007633587786259542,59.12213740458015,22.129770992366414,-93.21100917431193,-1056.2385321100917,0.3669724770642202,0.0
1760130045.992106,36,-126.71789010989012,-80.95226373626375,-68.07349450549451,0.007633587786259542,64.00763358778626,18.221374045801525,-93.21100917431193,-1056.2385321100917,0.3669724770642202,0.0
1760130046.0027916,37,-128.6295824175824,-73.59296703296704,-64.39384615384616,0.007633587786259542,68.89312977099236,22.129770992366414,-163.6697247706422,-1103.2110091743118,0.3669724770642202,0.0
1760130046.0242946,38,-136.032,-73.59296703296704,-51.515076923076926,0.007633587786259542,73.77862595419847,24.083969465648856,-140.1834862385321,-1126.697247706422,0.3669724770642202,0.0
1760130046.0561419,39,-134.11312087912088,-71.75314285714286,-60.71419780219781,0.007633587786259542,78.66412213740458,22.129770992366414,-140.1834862385321,-1126.697247706422,0.3669724770642202,0.0
1760130046.0668237,40,-124.96430769230768,-77.27261538461539,-58.87437362637363,0.007633587786259542,83.54961832061069,22.129770992366414,-116.69724770642202,-1079.7247706422017,0.3669724770642202,0.0
1760130046.088105,41,-141.5299120879121,-79.11243956043957,-62.554021978021986,0.007633587786259542,88.43511450381679,20.17557251908397,-93.21100917431193,-1079.7247706422017,0.3669724770642202,0.0
1760130046.1092446,42,-130.46221978021978,-71.75314285714286,-68.07349450549451,0.007633587786259542,93.3206106870229,22.129770992366414,-93.21100917431193,-1056.2385321100917,0.3669724770642202,0.0
1760130046.1201015,43,-130.4694065934066,-79.11243956043957,-57.03454945054945,0.007633587786259542,98.20610687022901,24.083969465648856,-140.1834862385321,-1056.2385321100917,0.3669724770642202,0.0
1760130046.1413522,44,-123.14604395604395,-66.23367032967033,-68.07349450549451,0.007633587786259542,103.09160305343511,22.129770992366414,-93.21100917431193,-1079.7247706422017,0.3669724770642202,0.0
1760130046.152081,45,-124.94993406593406,-80.95226373626375,-57.03454945054945,0.007633587786259542,107.97709923664122,18.221374045801525,-140.1834862385321,-1032.7522935779816,0.3669724770642202,0.0
1760130046.1732843,46,-128.52178021978023,-86.47173626373628,-60.71419780219781,0.007633587786259542,112.86259541984732,20.17557251908397,-140.1834862385321,-1079.7247706422017,0.3669724770642202,0.0
1760130046.2050862,47,-123.0526153846154,-84.63191208791208,-55.19472527472528,0.007633587786259542,117.74809160305344,20.17557251908397,-140.1834862385321,-1056.2385321100917,0.3669724770642202,0.0
1760130046.2156804,48,-130.4119120879121,-75.43279120879122,-58.87437362637363,0.007633587786259542,122.63358778625954,20.17557251908397,-93.21100917431193,-1032.7522935779816,0.3669724770642202,0.0
1760130046.2369418,49,-139.6757142857143,-77.27261538461539,-69.91331868131869,0.007633587786259542,127.51908396946565,20.17557251908397,-116.69724770642202,-1079.7247706422017,0.3669724770642202,0.0
1760130046.247705,50,-139.6182197802198,-79.11243956043957,-60.71419780219781,0.007633587786259542,132.40458015267177,22.129770992366414,-116.69724770642202,-1009.2660550458716,0.3669724770642202,0.0
1760130046.279352,51,-132.36672527472527,-77.27261538461539,-64.39384615384616,0.007633587786259542,137.29007633587787,24.083969465648856,-163.6697247706422,-1126.697247706422,0.3669724770642202,0.0
1760130046.3112197,52,-126.79694505494507,-66.23367032967033,-60.71419780219781,0.007633587786259542,142.17557251908397,18.221374045801525,-140.1834862385321,-1079.7247706422017,0.3669724770642202,0.0
1760130046.3218763,53,-123.01668131868132,-88.31156043956044,-66.23367032967033,0.007633587786259542,147.06106870229007,20.17557251908397,-93.21100917431193,-1056.2385321100917,0.3669724770642202,0.0
1760130046.3431993,54,-111.94898901098902,-88.31156043956044,-51.515076923076926,0.007633587786259542,151.94656488549617,22.129770992366414,-116.69724770642202,-1032.7522935779816,0.3669724770642202,0.0
1760130046.3539698,55,-143.3841098901099,-75.43279120879122,-64.39384615384616,0.007633587786259542,156.8320610687023,22.129770992366414,-140.1834862385321,-1103.2110091743118,0.3669724770642202,0.0
1760130046.375279,56,-124.8636923076923,-73.59296703296704,-49.67525274725275,0.007633587786259542,161.7175572519084,26.0381679389313,-116.69724770642202,-1150.1834862385322,0.3669724770642202,0.0
1760130046.396593,57,-130.61314285714286,-75.43279120879122,-68.07349450549451,0.007633587786259542,166.6030534351145,20.17557251908397,-140.1834862385321,-1103.2110091743118,0.3669724770642202,0.0
1760130046.4073958,58,-126.82569230769232,-75.43279120879122,-55.19472527472528,0.007633587786259542,171.4885496183206,22.129770992366414,-116.69724770642202,-1056.2385321100917,0.3669724770642202,0.0
1760130046.4389477,59,-135.93138461538462,-66.23367032967033,-68.07349450549451,0.007633587786259542,176.3740458015267,22.129770992366414,-93.21100917431193,-1056.2385321100917,0.3669724770642202,0.0
1760130046.4707115,60,-143.35536263736265,-73.59296703296704,-68.07349450549451,0.007633587786259542,181.25954198473283,22.129770992366414,-93.21100917431193,-1056.2385321100917,0.3669724770642202,0.0
1760130046.4814343,61,-112.07835164835166,-69.91331868131869,-75.43279120879122,0.007633587786259542,186.14503816793894,24.083969465648856,-116.69724770642202,-1056.2385321100917,0.3669724770642202,0.0
1760130046.5027606,62,-126.84006593406595,-75.43279120879122,-71.75314285714286,0.007633587786259542,191.03053435114504,20.17557251908397,-116.69724770642202,-1079.7247706422017,0.3669724770642202,0.0
1760130046.5134563,63,0.0,-139.6325934065934,-71.75314285714286,-70.35114503816794,0.007633587786259542,195.91603053435114,265.9633027522936,-116.69724770642202,-1079.7247706422017,0.0
1760130046.5348163,64,-0.3305934065934066,1.724835164835165,-110.25290109890109,-82.07633587786259,-72.30534351145039,0.007633587786259542,2413.302752293578,242.47706422018348,-93.21100917431193,0.0
1760130046.5560067,65,-0.4815164835164835,1.6385934065934065,-143.34817582417583,-72.30534351145039,-72.30534351145039,0.007633587786259542,2472.0183486238534,218.9908256880734,-93.21100917431193,0.0
1760130046.5667195,66,-0.459956043956044,1.7392087912087915,-119.42327472527472,-82.07633587786259,-62.534351145038165,0.007633587786259542,2530.7339449541287,289.44954128440367,-116.69724770642202,0.0
1760130046.5879993,67,-0.4743296703296704,1.6529670329670332,-143.2691208791209,-84.03053435114504,-66.44274809160305,0.007633587786259542,2589.4495412844035,289.44954128440367,-140.1834862385321,0.0
1760130046.598823,68,-0.5821318681318681,1.7535824175824177,-121.19123076923078,-82.07633587786259,-72.30534351145039,0.007633587786259542,2648.1651376146788,242.47706422018348,-140.1834862385321,0.0
1760130046.6200795,69,-0.43120879120879124,1.6673406593406594,-130.47659340659342,-80.12213740458016,-64.4885496183206,0.007633587786259542,2706.880733944954,265.9633027522936,-116.69724770642202,0.0
1760130046.6518495,70,-0.4527692307692308,1.767956043956044,-126.80413186813188,-76.21374045801527,-70.35114503816794,0.007633587786259542,2765.5963302752293,265.9633027522936,-93.21100917431193,0.0
1760130046.6625702,71,-0.4024615384615385,1.724835164835165,-124.93556043956043,-89.89312977099236,-62.534351145038165,0.007633587786259542,2824.3119266055046,312.9357798165138,-93.21100917431193,0.0
1760130046.683814,72,-0.5965054945054945,1.7104615384615385,-132.27329670329672,-85.98473282442748,-64.4885496183206,0.007633587786259542,2883.02752293578,289.44954128440367,-116.69724770642202,0.0
1760130046.7154639,73,-0.5821318681318681,1.6960879120879122,-141.4796043956044,-70.35114503816794,-72.30534351145039,0.007633587786259542,2941.743119266055,218.9908256880734,-163.6697247706422,0.0
1760130046.7261176,74,-0.5893186813186814,1.5954725274725277,-128.64395604395605,-89.89312977099236,-74.25954198473282,0.007633587786259542,3000.4587155963304,289.44954128440367,-93.21100917431193,0.0
1760130046.7473044,75,-0.42402197802197805,1.7104615384615385,-130.5269010989011,-80.12213740458016,-62.534351145038165,0.007633587786259542,-2953.3027522935777,312.9357798165138,-116.69724770642202,0.0
1760130046.758151,76,-0.42402197802197805,1.7032747252747253,-132.31641758241759,-93.80152671755725,-72.30534351145039,0.007633587786259542,-2894.587155963303,218.9908256880734,-93.21100917431193,0.0
1760130046.7898183,77,-0.4958901098901099,1.6457802197802198,-124.87806593406593,-84.03053435114504,-68.3969465648855,0.007633587786259542,-2835.8715596330276,265.9633027522936,-116.69724770642202,0.0
1760130046.8111193,78,-0.43839560439560443,1.5954725274725277,-122.92325274725275,-74.25954198473282,-68.3969465648855,0.007633587786259542,-2777.1559633027523,265.9633027522936,-140.1834862385321,0.0
1760130046.8218884,79,-0.46714285714285714,1.7032747252747253,-123.0023076923077,-85.98473282442748,-70.35114503816794,0.007633587786259542,-2718.440366972477,265.9633027522936,-140.1834862385321,0.0
1760130046.8536894,80,-0.5605714285714286,1.7823296703296703,-136.06793406593408,-85.98473282442748,-66.44274809160305,0.007633587786259542,-2659.7247706422017,265.9633027522936,-116.69724770642202,0.0
1760130046.8644104,81,-0.44558241758241757,1.7895164835164834,-115.71487912087913,-76.21374045801527,-56.67175572519084,0.007633587786259542,-2601.0091743119265,242.47706422018348,-140.1834862385321,0.0
1760130046.8857963,82,-0.4958901098901099,1.7032747252747253,-137.7137142857143,-80.12213740458016,-70.35114503816794,0.007633587786259542,-2542.293577981651,265.9633027522936,-140.1834862385321,0.0
1760130046.907097,83,-0.4096483516483516,1.573912087912088,-130.48378021978024,-76.21374045801527,-68.3969465648855,0.007633587786259542,-2483.577981651376,289.44954128440367,-116.69724770642202,0.0
1760130046.9179003,84,-0.42402197802197805,1.7463956043956046,-123.06698901098902,-72.30534351145039,-62.534351145038165,0.007633587786259542,-2424.8623853211006,265.9633027522936,-140.1834862385321,0.0
1760130046.939134,85,-0.6180659340659341,1.7320219780219783,-126.79694505494507,-85.98473282442748,-68.3969465648855,0.007633587786259542,-2366.1467889908254,242.47706422018348,-163.6697247706422,0.0
1760130046.9499166,86,-0.39527472527472535,1.724835164835165,-128.63676923076923,-89.89312977099236,-62.534351145038165,0.007633587786259542,-2307.4311926605506,242.47706422018348,-140.1834862385321,0.0
1760130046.9817758,87,-0.5102637362637363,1.7392087912087915,-130.55564835164836,-89.89312977099236,-64.4885496183206,0.007633587786259542,-2248.7155963302753,242.47706422018348,-93.21100917431193,0.0
1760130047.0136492,88,-0.4815164835164835,1.7463956043956046,-115.78674725274726,-80.12213740458016,-72.30534351145039,0.007633587786259542,-2190.0,242.47706422018348,-93.21100917431193,0.0
1760130047.0244086,89,-0.5318241758241758,1.688901098901099,-115.66457142857143,-82.07633587786259,-68.3969465648855,0.007633587786259542,-2131.2844036697247,242.47706422018348,-140.1834862385321,0.0
1760130047.0457716,90,-0.5461978021978022,1.609846153846154,-121.17685714285716,-84.03053435114504,-70.35114503816794,0.007633587786259542,-2072.5688073394494,242.47706422018348,-116.69724770642202,0.0
1760130047.0565107,91,-0.6108791208791209,1.7176483516483516,-119.43046153846154,-82.07633587786259,-62.534351145038165,0.007633587786259542,-2013.8532110091742,265.9633027522936,-116.69724770642202,0.0
1760130047.0778072,92,-0.5605714285714286,1.6960879120879122,-141.48679120879123,-87.93893129770993,-72.30534351145039,0.007633587786259542,-1955.137614678899,265.9633027522936,-163.6697247706422,0.0
1760130047.1094368,93,-0.5893186813186814,1.6026593406593408,-126.68914285714287,-76.21374045801527,-66.44274809160305,0.007633587786259542,-1896.4220183486236,289.44954128440367,-93.21100917431193,0.0
1760130047.1199355,94,-0.43839560439560443,1.7320219780219783,-124.92837362637363,-82.07633587786259,-64.4885496183206,0.007633587786259542,-1837.7064220183483,265.9633027522936,-93.21100917431193,0.0
1760130047.1616771,95,-0.39527472527472535,1.6960879120879122,-126.79694505494507,-72.30534351145039,-66.44274809160305,0.007633587786259542,-1778.9908256880733,265.9633027522936,-140.1834862385321,0.0
1760130047.17232,96,-0.43120879120879124,1.5882857142857145,-130.44065934065935,-84.03053435114504,-74.25954198473282,0.007633587786259542,-1720.275229357798,289.44954128440367,-116.69724770642202,0.0
1760130047.1828213,97,-0.4743296703296704,1.6673406593406594,-126.84725274725275,-76.21374045801527,-64.4885496183206,0.007633587786259542,-1661.5596330275228,218.9908256880734,-140.1834862385321,0.0
1760130047.2041497,98,-0.46714285714285714,1.6601538461538463,-117.54751648351649,-74.25954198473282,-74.25954198473282,0.007633587786259542,-1602.8440366972475,289.44954128440367,-116.69724770642202,0.0
1760130047.2254505,99,-0.41683516483516486,1.7032747252747253,-130.44784615384617,-82.07633587786259,-64.4885496183206,0.007633587786259542,-1544.1284403669724,289.44954128440367,-69.72477064220183,0.0
1760130047.236153,100,-0.5102637362637363,1.6673406593406594,-119.27235164835164,-82.07633587786259,-74.25954198473282,0.007633587786259542,-1485.4128440366972,242.47706422018348,-116.69724770642202,0.0
1760130047.2574441,101,1.422989010989011,0.09342857142857144,-132.31641758241759,-80.12213740458016,-58.62595419847328,0.007633587786259542,-1426.697247706422,289.44954128440367,-140.1834862385321,0.0
1760130047.268185,102,-0.5246373626373626,1.6601538461538463,-136.032,-93.80152671755725,-60.58015267175573,0.007633587786259542,-1367.9816513761468,242.47706422018348,-116.69724770642202,0.0
1760130047.2893732,103,-0.5461978021978022,1.6673406593406594,-135.917010989011,-91.8473282442748,-56.67175572519084,0.007633587786259542,-1309.2660550458716,265.9633027522936,-163.6697247706422,0.0
1760130047.3211138,104,-0.39527472527472535,1.5882857142857145,-125.00742857142856,-76.21374045801527,-70.35114503816794,0.007633587786259542,-1250.5504587155963,265.9633027522936,-93.21100917431193,0.0
1760130047.3316288,105,-0.459956043956044,1.617032967032967,-134.07,-89.89312977099236,-62.534351145038165,0.007633587786259542,-1191.834862385321,218.9908256880734,-93.21100917431193,0.0
1760130047.3522222,106,-0.43839560439560443,1.7320219780219783,-117.57626373626374,-82.07633587786259,-64.4885496183206,0.007633587786259542,-1133.119266055046,242.47706422018348,-140.1834862385321,0.0
1760130047.3626158,107,-0.5677582417582419,1.6673406593406594,-135.99606593406594,-84.03053435114504,-60.58015267175573,0.007633587786259542,-1074.4036697247707,265.9633027522936,-116.69724770642202,0.0
1760130047.3832738,108,-0.46714285714285714,1.7320219780219783,-121.29903296703297,-84.03053435114504,-78.16793893129771,0.007633587786259542,-1015.6880733944954,218.9908256880734,-116.69724770642202,0.0
1760130047.4144325,109,-0.5030769230769231,1.6745274725274726,-136.01043956043958,-78.16793893129771,-68.3969465648855,0.007633587786259542,-956.9724770642201,218.9908256880734,-140.1834862385321,0.0
1760130047.4248636,110,-0.48870329670329676,1.7895164835164834,-150.67153846153846,-80.12213740458016,-54.717557251908396,0.007633587786259542,-898.256880733945,265.9633027522936,-140.1834862385321,0.0
1760130047.4456441,111,-0.459956043956044,1.7895164835164834,-126.76819780219782,-84.03053435114504,-72.30534351145039,0.007633587786259542,-839.5412844036697,242.47706422018348,-93.21100917431193,0.0
1760130047.4771497,112,1.3295604395604395,0.02156043956043956,-119.3585934065934,-80.12213740458016,-62.534351145038165,0.007633587786259542,-780.8256880733944,265.9633027522936,-140.1834862385321,0.0
1760130047.4877534,113,-0.48870329670329676,1.7607692307692309,-128.65114285714287,-74.25954198473282,-68.3969465648855,0.007633587786259542,-722.1100917431193,242.47706422018348,-140.1834862385321,0.0
1760130047.5089822,114,-0.4743296703296704,1.724835164835165,-135.90982417582418,-80.12213740458016,-64.4885496183206,0.007633587786259542,-663.3944954128441,289.44954128440367,-140.1834862385321,0.0
1760130047.5198293,115,-0.459956043956044,1.767956043956044,-115.80830769230771,-76.21374045801527,-64.4885496183206,0.007633587786259542,-604.6788990825688,242.47706422018348,-93.21100917431193,0.0
1760130047.5411344,116,-0.43839560439560443,1.4661098901098901,-132.21580219780222,-76.21374045801527,-82.07633587786259,0.007633587786259542,-545.9633027522937,265.9633027522936,-140.1834862385321,0.0
1760130047.5728688,117,-0.5677582417582419,1.724835164835165,-130.5197142857143,-66.44274809160305,-66.44274809160305,0.007633587786259542,-487.2477064220184,265.9633027522936,-116.69724770642202,0.0
1760130047.5836096,118,-0.3809010989010989,1.7535824175824177,-130.37597802197803,-78.16793893129771,-64.4885496183206,0.007633587786259542,-428.53211009174316,242.47706422018348,-163.6697247706422,0.0
1760130047.6049113,119,-0.30903296703296707,1.7032747252747253,-115.76518681318683,-68.3969465648855,-70.35114503816794,0.007633587786259542,-369.8165137614679,265.9633027522936,-116.69724770642202,0.0
1760130047.6157463,120,-0.5246373626373626,1.5451648351648353,-132.33797802197802,-82.07633587786259,-68.3969465648855,0.007633587786259542,-311.10091743119267,242.47706422018348,-163.6697247706422,0.0
1760130047.6475425,121,-0.5461978021978022,1.6026593406593408,-128.59364835164834,-74.25954198473282,-70.35114503816794,0.007633587786259542,-252.38532110091745,218.9908256880734,-140.1834862385321,0.0
1760130047.6688814,122,-0.5174505494505495,1.6314065934065933,-123.08854945054945,-74.25954198473282,-64.4885496183206,0.007633587786259542,-193.6697247706422,242.47706422018348,-116.69724770642202,0.0
1760130047.6796255,123,-0.4743296703296704,1.7751428571428571,-119.48795604395605,-80.12213740458016,-62.534351145038165,0.007633587786259542,-134.954128440367,265.9633027522936,-116.69724770642202,0.0
1760130047.7010214,124,-0.5246373626373626,1.7463956043956046,-128.63676923076923,-76.21374045801527,-64.4885496183206,0.007633587786259542,-76.23853211009174,265.9633027522936,-140.1834862385321,0.0
1760130047.711728,125,-0.539010989010989,1.7392087912087915,-132.25892307692308,-87.93893129770993,-64.4885496183206,0.007633587786259542,-17.522935779816514,265.9633027522936,-140.1834862385321,0.0
1760130047.7330039,126,-0.5533846153846155,1.6817142857142857,-126.8185054945055,-70.35114503816794,-64.4885496183206,0.007633587786259542,41.19266055045871,242.56880733944953,-93.21100917431193,0.0
1760130047.764566,127,-0.43839560439560443,1.7320219780219783,-126.79694505494507,-89.89312977099236,-68.3969465648855,0.007633587786259542,99.90825688073394,266.0550458715596,-93.21100917431193,0.0
1760130047.7962346,128,-0.4743296703296704,1.6385934065934065,-128.5577142857143,-78.16793893129771,-68.3969465648855,0.007633587786259542,158.6238532110092,289.54128440366975,-140.1834862385321,0.0
1760130047.807004,129,-0.36652747252747253,1.6817142857142857,-123.01668131868132,-89.89312977099236,-72.30534351145039,0.007633587786259542,217.3394495412844,219.08256880733944,-140.1834862385321,0.0
1760130047.8282886,130,-0.4743296703296704,1.6314065934065933,-124.94993406593406,-72.30534351145039,-66.44274809160305,0.007633587786259542,276.0550458715596,242.56880733944953,-140.1834862385321,0.0
1760130047.8600962,131,-0.5893186813186814,1.609846153846154,-126.73945054945055,-78.16793893129771,-68.3969465648855,0.007633587786259542,334.7706422018349,266.0550458715596,-69.72477064220183,0.0
1760130047.8708458,132,-0.574945054945055,1.7823296703296703,-124.96430769230768,-84.03053435114504,-62.534351145038165,0.007633587786259542,393.4862385321101,242.56880733944953,-140.1834862385321,0.0
1760130047.8816288,133,-0.2802857142857143,1.7176483516483516,-126.73945054945055,-72.30534351145039,-68.3969465648855,0.007633587786259542,452.20183486238534,242.56880733944953,-93.21100917431193,0.0
1760130047.8924396,134,-0.42402197802197805,1.6529670329670332,-126.73945054945055,-85.98473282442748,-62.534351145038165,0.007633587786259542,510.91743119266056,289.54128440366975,-69.72477064220183,0.0
1760130047.9243515,135,-0.459956043956044,1.6960879120879122,-121.32059340659342,-89.89312977099236,-58.62595419847328,0.007633587786259542,569.6330275229358,266.0550458715596,-116.69724770642202,0.0
1760130047.9351206,136,-0.539010989010989,1.6745274725274726,-134.08437362637363,-85.98473282442748,-58.62595419847328,0.007633587786259542,628.348623853211,266.0550458715596,-116.69724770642202,0.0
1760130047.956392,137,-0.5246373626373626,1.7104615384615385,-128.60802197802198,-78.16793893129771,-52.76335877862596,0.007633587786259542,687.0642201834863,289.54128440366975,-163.6697247706422,0.0
1760130047.988068,138,1.4373626373626376,0.0,-132.25892307692308,-84.03053435114504,-68.3969465648855,0.007633587786259542,745.7798165137615,289.54128440366975,-116.69724770642202,0.0
1760130047.9987743,139,1.2864395604395606,0.04312087912087912,-123.02386813186814,-82.07633587786259,-68.3969465648855,0.007633587786259542,804.4954128440367,289.54128440366975,-163.6697247706422,0.0
1760130048.020074,140,-0.41683516483516486,1.7392087912087915,-130.54846153846154,-82.07633587786259,-68.3969465648855,0.007633587786259542,863.2110091743119,266.0550458715596,-140.1834862385321,0.0
1760130048.05198,141,-0.48870329670329676,1.609846153846154,-126.761010989011,-78.16793893129771,-58.62595419847328,0.007633587786259542,921.9266055045871,289.54128440366975,-93.21100917431193,0.0
1760130048.0627391,142,-0.5821318681318681,1.6817142857142857,-136.01043956043958,-85.98473282442748,-66.44274809160305,0.007633587786259542,980.6422018348624,289.54128440366975,-140.1834862385321,0.0
1760130048.084168,143,-0.5246373626373626,1.7104615384615385,-126.77538461538462,-89.89312977099236,-62.534351145038165,0.007633587786259542,1039.3577981651376,242.56880733944953,-116.69724770642202,0.0
1760130048.094926,144,-0.3880879120879121,1.724835164835165,-126.89037362637363,-84.03053435114504,-58.62595419847328,0.007633587786259542,1098.073394495413,242.56880733944953,-140.1834862385321,0.0
1760130048.1159124,145,-0.5318241758241758,1.5307912087912088,-121.26309890109891,-72.30534351145039,-74.25954198473282,0.007633587786259542,1156.788990825688,219.08256880733944,-116.69724770642202,0.0
1760130048.137136,146,-0.5246373626373626,1.6745274725274726,-123.02386813186814,-82.07633587786259,-66.44274809160305,0.007633587786259542,1215.5045871559632,266.0550458715596,-140.1834862385321,0.0
1760130048.1479259,147,-0.5677582417582419,1.6960879120879122,-134.10593406593406,-85.98473282442748,-54.717557251908396,0.007633587786259542,1274.2201834862385,289.54128440366975,-140.1834862385321,0.0
1760130048.1691608,148,-0.5677582417582419,1.724835164835165,-115.85861538461539,-70.35114503816794,-62.534351145038165,0.007633587786259542,1332.9357798165138,266.0550458715596,-93.21100917431193,0.0
1760130048.1798913,149,-0.5533846153846155,1.7392087912087915,-137.8287032967033,-68.3969465648855,-74.25954198473282,0.007633587786259542,1391.651376146789,313.0275229357798,-93.21100917431193,0.0
1760130048.211782,150,-0.5246373626373626,1.7607692307692309,-125.02898901098901,-76.21374045801527,-56.67175572519084,0.007633587786259542,1450.366972477064,266.0550458715596,-69.72477064220183,0.0
1760130048.2436087,151,-0.43839560439560443,1.7032747252747253,-123.13885714285715,-72.30534351145039,-66.44274809160305,0.007633587786259542,1509.0825688073394,266.0550458715596,-93.21100917431193,0.0
1760130048.254183,152,-0.4527692307692308,1.7392087912087915,-126.761010989011,-78.16793893129771,-72.30534351145039,0.007633587786259542,1567.7981651376147,242.56880733944953,-116.69724770642202,0.0
1760130048.2752278,153,-0.459956043956044,1.724835164835165,-128.60083516483516,-74.25954198473282,-60.58015267175573,0.007633587786259542,1626.51376146789,242.56880733944953,-93.21100917431193,0.0
1760130048.285932,154,-0.5821318681318681,1.8110769230769233,-136.00325274725276,-78.16793893129771,-66.44274809160305,0.007633587786259542,1685.2293577981652,242.56880733944953,-140.1834862385321,0.0
1760130048.307289,155,-0.539010989010989,1.7392087912087915,-132.27329670329672,-78.16793893129771,-66.44274809160305,0.007633587786259542,1743.9449541284403,289.54128440366975,-140.1834862385321,0.0
1760130048.3388493,156,-0.5965054945054945,1.7320219780219783,-132.30204395604397,-84.03053435114504,-64.4885496183206,0.007633587786259542,1802.6605504587155,242.56880733944953,-163.6697247706422,0.0
1760130048.3496523,157,-0.4743296703296704,1.6745274725274726,-119.38734065934067,-72.30534351145039,-68.3969465648855,0.007633587786259542,1861.3761467889908,266.0550458715596,-116.69724770642202,0.0
1760130048.3604214,158,-0.4024615384615385,1.617032967032967,-143.35536263736265,-85.98473282442748,-78.16793893129771,0.007633587786259542,1920.091743119266,289.54128440366975,-140.1834862385321,0.0
1760130048.3916903,159,-0.5246373626373626,1.6457802197802198,-117.56907692307693,-84.03053435114504,-64.4885496183206,0.007633587786259542,1978.8073394495414,242.56880733944953,-93.21100917431193,0.0
1760130048.4229007,160,-0.5174505494505495,1.6817142857142857,-137.85026373626374,-85.98473282442748,-66.44274809160305,0.007633587786259542,2037.5229357798166,242.56880733944953,-116.69724770642202,0.0
1760130048.4336464,161,-0.4743296703296704,1.7535824175824177,-113.93973626373626,-84.03053435114504,-64.4885496183206,0.007633587786259542,2096.238532110092,313.0275229357798,-93.21100917431193,0.0
1760130048.4652314,162,-0.44558241758241757,1.6314065934065933,-143.3266153846154,-70.35114503816794,-70.35114503816794,0.007633587786259542,2154.954128440367,242.56880733944953,-116.69724770642202,0.0
1760130048.4759295,163,-0.5246373626373626,1.7104615384615385,-121.19123076923078,-87.93893129770993,-68.3969465648855,0.007633587786259542,2213.6697247706425,289.54128440366975,-93.21100917431193,0.0
1760130048.4867654,164,-0.4958901098901099,1.7320219780219783,-124.914,-80.12213740458016,-72.30534351145039,0.007633587786259542,2272.3853211009173,242.56880733944953,-116.69724770642202,0.0
1760130048.4975498,165,-0.48870329670329676,1.6601538461538463,-126.83287912087913,-93.80152671755725,-68.3969465648855,0.007633587786259542,2331.1009174311926,266.0550458715596,-116.69724770642202,0.0
1760130048.518863,166,-0.5102637362637363,1.7032747252747253,-139.65415384615383,-76.21374045801527,-66.44274809160305,0.007633587786259542,2389.816513761468,289.54128440366975,-116.69724770642202,0.0
1760130048.5505865,167,-0.4096483516483516,1.6817142857142857,-132.2804835164835,-74.25954198473282,-70.35114503816794,0.007633587786259542,2448.532110091743,266.0550458715596,-116.69724770642202,0.0
1760130048.5612705,168,-0.44558241758241757,1.6529670329670332,-126.69632967032967,-72.30534351145039,-64.4885496183206,0.007633587786259542,2507.2477064220184,266.0550458715596,-116.69724770642202,0.0
1760130048.5826256,169,-0.41683516483516486,1.6960879120879122,-128.64395604395605,-72.30534351145039,-66.44274809160305,0.007633587786259542,2565.9633027522937,219.08256880733944,-93.21100917431193,0.0
1760130048.61442,170,-0.5965054945054945,1.7392087912087915,-132.222989010989,-80.12213740458016,-62.534351145038165,0.007633587786259542,2624.678899082569,242.56880733944953,-140.1834862385321,0.0
1760130048.6252024,171,-0.5174505494505495,1.6457802197802198,-134.1274945054945,-74.25954198473282,-66.44274809160305,0.007633587786259542,2683.394495412844,266.0550458715596,-93.21100917431193,0.0
1760130048.646626,172,-0.42402197802197805,1.7176483516483516,-124.8636923076923,-72.30534351145039,-64.4885496183206,0.007633587786259542,2742.1100917431195,219.08256880733944,-140.1834862385321,0.0
1760130048.657397,173,-0.4743296703296704,1.7104615384615385,-130.43347252747253,-76.21374045801527,-68.3969465648855,0.007633587786259542,2800.8256880733948,289.54128440366975,-140.1834862385321,0.0
1760130048.67882,174,-0.43839560439560443,1.6745274725274726,-135.98887912087912,-74.25954198473282,-66.44274809160305,0.007633587786259542,2859.5412844036696,289.54128440366975,-116.69724770642202,0.0
1760130048.710697,175,-0.5102637362637363,1.6960879120879122,-126.7035164835165,-82.07633587786259,-66.44274809160305,0.007633587786259542,2918.256880733945,289.54128440366975,-116.69724770642202,0.0
1760130048.7213964,176,-0.5174505494505495,1.7392087912087915,-128.52896703296705,-85.98473282442748,-74.25954198473282,0.007633587786259542,2976.97247706422,242.56880733944953,-140.1834862385321,0.0
1760130048.7427714,177,-0.43120879120879124,1.7032747252747253,-124.914,-72.30534351145039,-58.62595419847328,0.007633587786259542,-2976.788990825688,266.0550458715596,-163.6697247706422,0.0
1760130048.7742918,178,-0.44558241758241757,1.6529670329670332,-145.1808131868132,-82.07633587786259,-62.534351145038165,0.007633587786259542,-2918.0733944954127,289.54128440366975,-140.1834862385321,0.0
1760130048.7850413,179,-0.6036923076923078,1.767956043956044,-134.03406593406592,-76.21374045801527,-68.3969465648855,0.007633587786259542,-2859.3577981651374,266.0550458715596,-93.21100917431193,0.0
1760130048.80626,180,-0.43120879120879124,1.7176483516483516,-123.13885714285715,-76.21374045801527,-62.534351145038165,0.007633587786259542,-2800.642201834862,266.0550458715596,-116.69724770642202,0.0
1760130048.8170016,181,-0.6108791208791209,1.6242197802197802,-126.80413186813188,-76.21374045801527,-64.4885496183206,0.007633587786259542,-2741.926605504587,289.54128440366975,-116.69724770642202,0.0
1760130048.8381839,182,-0.4743296703296704,1.6817142857142857,-115.63582417582418,-78.16793893129771,-66.44274809160305,0.007633587786259542,-2683.2110091743116,266.0550458715596,-116.69724770642202,0.0
1760130048.8594253,183,-0.539010989010989,1.6242197802197802,-136.06793406593408,-70.35114503816794,-70.35114503816794,0.007633587786259542,-2624.4954128440368,266.0550458715596,-116.69724770642202,0.0
1760130048.8701837,184,-0.5174505494505495,1.5882857142857145,-119.39452747252747,-82.07633587786259,-74.25954198473282,0.007633587786259542,-2565.7798165137615,242.56880733944953,-116.69724770642202,0.0
1760130048.8916254,185,-0.5030769230769231,1.7392087912087915,-132.3739120879121,-84.03053435114504,-74.25954198473282,0.007633587786259542,-2507.064220183486,266.0550458715596,-140.1834862385321,0.0
1760130048.923366,186,-0.46714285714285714,1.6385934065934065,-119.43764835164835,-82.07633587786259,-64.4885496183206,0.007633587786259542,-2448.348623853211,242.56880733944953,-140.1834862385321,0.0
1760130048.9341547,187,-0.39527472527472535,1.6817142857142857,-121.22716483516484,-95.7557251908397,-66.44274809160305,0.007633587786259542,-2389.6330275229357,266.0550458715596,-116.69724770642202,0.0
1760130048.955412,188,-0.36652747252747253,1.8182637362637364,-141.45804395604398,-74.25954198473282,-62.534351145038165,0.007633587786259542,-2330.9174311926604,266.0550458715596,-116.69724770642202,0.0
1760130048.9661741,189,-0.4815164835164835,1.7823296703296703,-124.92118681318681,-84.03053435114504,-66.44274809160305,0.007633587786259542,-2272.201834862385,242.56880733944953,-93.21100917431193,0.0
1760130048.9874563,190,-0.539010989010989,1.7320219780219783,-128.62239560439562,-76.21374045801527,-66.44274809160305,0.007633587786259542,-2213.48623853211,219.08256880733944,-93.21100917431193,0.0
1760130049.0192995,191,-0.5677582417582419,1.6673406593406594,-132.35235164835166,-78.16793893129771,-66.44274809160305,0.007633587786259542,-2154.7706422018346,266.0550458715596,-116.69724770642202,0.0
1760130049.0300095,192,-0.4527692307692308,1.6673406593406594,-126.71789010989012,-89.89312977099236,-52.76335877862596,0.007633587786259542,-2096.0550458715593,266.0550458715596,-93.21100917431193,0.0
1760130049.051396,193,-0.48870329670329676,1.6601538461538463,-123.0598021978022,-85.98473282442748,-80.12213740458016,0.007633587786259542,-2037.3394495412842,266.0550458715596,-116.69724770642202,0.0
1760130049.0832026,194,-0.6036923076923078,1.7895164835164834,-143.26193406593407,-82.07633587786259,-58.62595419847328,0.007633587786259542,-1978.623853211009,289.54128440366975,-116.69724770642202,0.0
1760130049.0939794,195,-0.5030769230769231,1.6960879120879122,-121.30621978021979,-80.12213740458016,-70.35114503816794,0.007633587786259542,-1919.9082568807337,266.0550458715596,-140.1834862385321,0.0
1760130049.1153257,196,-0.5533846153846155,1.5379780219780221,-130.44784615384617,-87.93893129770993,-62.534351145038165,0.007633587786259542,-1861.1926605504586,242.56880733944953,-116.69724770642202,0.0
1760130049.1260836,197,-0.654,1.6673406593406594,-117.54751648351649,-70.35114503816794,-66.44274809160305,0.007633587786259542,-1802.4770642201834,219.08256880733944,-163.6697247706422,0.0
1760130049.1474147,198,-0.654,1.6457802197802198,-121.14810989010991,-85.98473282442748,-54.717557251908396,0.007633587786259542,-1743.761467889908,266.0550458715596,-93.21100917431193,0.0
1760130049.1792314,199,-0.6036923076923078,1.6242197802197802,-143.42004395604397,-84.03053435114504,-58.62595419847328,0.007633587786259542,-1685.0458715596328,242.56880733944953,-116.69724770642202,0.0
1760130049.190076,200,-0.48870329670329676,1.724835164835165,-124.93556043956043,-80.12213740458016,-66.44274809160305,0.007633587786259542,-1626.3302752293575,266.0550458715596,-140.1834862385321,0.0
1760130049.2009404,201,-0.43839560439560443,1.6601538461538463,-132.3739120879121,-87.93893129770993,-78.16793893129771,0.007633587786259542,-1567.6146788990825,266.0550458715596,-163.6697247706422,0.0
1760130049.2326705,202,-0.43839560439560443,1.7176483516483516,-117.55470329670331,-74.25954198473282,-56.67175572519084,0.007633587786259542,-1508.8990825688074,289.54128440366975,-116.69724770642202,0.0
1760130049.2446432,203,-0.4527692307692308,1.7607692307692309,-132.3739120879121,-87.93893129770993,-72.30534351145039,0.007633587786259542,-1450.1834862385322,266.0550458715596,-93.21100917431193,0.0
1760130049.2657862,204,-0.4527692307692308,1.6673406593406594,-128.5720879120879,-85.98473282442748,-74.25954198473282,0.007633587786259542,-1391.467889908257,266.0550458715596,-116.69724770642202,0.0
1760130049.2975478,205,-0.5318241758241758,1.7823296703296703,-123.1101098901099,-91.8473282442748,-58.62595419847328,0.007633587786259542,-1332.7522935779816,266.0550458715596,-163.6697247706422,0.0
1760130049.3082674,206,-0.48870329670329676,1.6457802197802198,-124.99305494505494,-78.16793893129771,-66.44274809160305,0.007633587786259542,-1274.0366972477063,313.0275229357798,-93.21100917431193,0.0
1760130049.3296242,207,-0.4958901098901099,1.4732967032967033,-128.64395604395605,-89.89312977099236,-58.62595419847328,0.007633587786259542,-1215.321100917431,266.0550458715596,-140.1834862385321,0.0
1760130049.3403378,208,1.2433186813186814,0.14373626373626375,-128.5577142857143,-76.21374045801527,-60.58015267175573,0.007633587786259542,-1156.605504587156,195.59633027522935,-140.1834862385321,0.0
1760130049.3615162,209,-0.5246373626373626,1.7607692307692309,-121.27028571428572,-87.93893129770993,-72.30534351145039,0.007633587786259542,-1097.8899082568807,266.0550458715596,-116.69724770642202,0.0
1760130049.3931131,210,-0.574945054945055,1.5810989010989014,-123.13885714285715,-80.12213740458016,-66.44274809160305,0.007633587786259542,-1039.1743119266055,289.54128440366975,-116.69724770642202,0.0
1760130049.4036758,211,-0.34496703296703296,1.7032747252747253,-106.5373186813187,-82.07633587786259,-72.30534351145039,0.007633587786259542,-980.4587155963302,266.0550458715596,-93.21100917431193,0.0
1760130049.424329,212,-0.43120879120879124,1.617032967032967,-132.28767032967033,-74.25954198473282,-66.44274809160305,0.007633587786259542,-921.743119266055,266.0550458715596,-140.1834862385321,0.0
1760130049.4552042,213,-0.4096483516483516,1.6601538461538463,-125.00742857142856,-72.30534351145039,-74.25954198473282,0.007633587786259542,-863.0275229357798,242.56880733944953,-93.21100917431193,0.0
1760130049.4655993,214,-0.5318241758241758,1.8038901098901101,-134.1706153846154,-80.12213740458016,-68.3969465648855,0.007633587786259542,-804.3119266055046,289.54128440366975,-116.69724770642202,0.0
1760130049.4862964,215,-0.43839560439560443,1.8038901098901101,-132.31641758241759,-85.98473282442748,-70.35114503816794,0.007633587786259542,-745.5963302752294,289.54128440366975,-116.69724770642202,0.0
1760130049.4968753,216,-0.574945054945055,1.6026593406593408,-143.34817582417583,-74.25954198473282,-62.534351145038165,0.007633587786259542,-686.8807339449542,242.56880733944953,-116.69724770642202,0.0
1760130049.518307,217,-0.5318241758241758,1.6960879120879122,-121.27747252747254,-78.16793893129771,-70.35114503816794,0.007633587786259542,-628.1651376146789,242.56880733944953,-163.6697247706422,0.0
1760130049.5501564,218,-0.4024615384615385,1.6529670329670332,-128.55052747252748,-74.25954198473282,-66.44274809160305,0.007633587786259542,-569.4495412844037,266.0550458715596,-140.1834862385321,0.0
1760130049.5608764,219,-0.5246373626373626,1.5882857142857145,-132.33797802197802,-74.25954198473282,-76.21374045801527,0.007633587786259542,-510.73394495412845,242.56880733944953,-116.69724770642202,0.0
1760130049.5818574,220,-0.5533846153846155,1.6960879120879122,-119.48795604395605,-80.12213740458016,-64.4885496183206,0.007633587786259542,-452.0183486238532,266.0550458715596,-163.6697247706422,0.0
1760130049.5925968,221,-0.6036923076923078,1.6242197802197802,-124.89243956043956,-74.25954198473282,-70.35114503816794,0.007633587786259542,-393.30275229357795,266.0550458715596,-116.69724770642202,0.0
1760130049.6139007,222,-0.5030769230769231,1.7607692307692309,-123.07417582417582,-78.16793893129771,-72.30534351145039,0.007633587786259542,-334.5871559633028,219.08256880733944,-93.21100917431193,0.0
1760130049.6457157,223,-0.574945054945055,1.5164175824175825,-132.3236043956044,-85.98473282442748,-70.35114503816794,0.007633587786259542,-275.8715596330275,266.0550458715596,-116.69724770642202,0.0
1760130049.677336,224,-0.42402197802197805,1.6242197802197802,-123.08854945054945,-85.98473282442748,-64.4885496183206,0.007633587786259542,-217.1559633027523,289.54128440366975,-140.1834862385321,0.0
1760130049.6879811,225,-0.5893186813186814,1.5954725274725277,-123.15323076923077,-85.98473282442748,-68.3969465648855,0.007633587786259542,-158.44036697247705,242.56880733944953,-69.72477064220183,0.0
1760130049.709199,226,-0.5174505494505495,1.7751428571428571,-128.6152087912088,-78.16793893129771,-64.4885496183206,0.007633587786259542,-99.72477064220183,289.54128440366975,-140.1834862385321,0.0
1760130049.7199705,227,-0.5605714285714286,1.6529670329670332,-126.77538461538462,-80.12213740458016,-64.4885496183206,0.007633587786259542,-41.00917431192661,242.56880733944953,-116.69724770642202,0.0
1760130049.7412994,228,-0.46714285714285714,1.7320219780219783,-117.64094505494506,-84.03053435114504,-68.3969465648855,0.007633587786259542,17.706422018348626,266.1467889908257,-116.69724770642202,0.0
1760130049.75205,229,-0.46714285714285714,1.6385934065934065,-136.03918681318683,-84.03053435114504,-66.44274809160305,0.007633587786259542,76.42201834862385,242.6605504587156,-140.1834862385321,0.0
1760130049.7732592,230,-0.42402197802197805,-0.14373626373626375,-125.15835164835167,-85.98473282442748,-52.76335877862596,0.007633587786259542,135.1376146788991,242.6605504587156,-116.69724770642202,0.0
1760130049.805013,231,-0.5246373626373626,1.6529670329670332,-123.2250989010989,-74.25954198473282,-64.4885496183206,0.007633587786259542,193.85321100917432,242.6605504587156,-116.69724770642202,0.0
1760130049.836827,232,-0.42402197802197805,1.7535824175824177,-117.61938461538462,-85.98473282442748,-64.4885496183206,0.007633587786259542,252.56880733944956,266.1467889908257,-140.1834862385321,0.0
1760130049.847569,233,-0.44558241758241757,1.6457802197802198,-126.8113186813187,-85.98473282442748,-68.3969465648855,0.007633587786259542,311.2844036697248,289.6330275229358,-116.69724770642202,0.0
1760130049.8688924,234,-0.5174505494505495,1.6673406593406594,-135.917010989011,-68.3969465648855,-68.3969465648855,0.007633587786259542,370.0,242.6605504587156,-93.21100917431193,0.0
1760130049.8795934,235,-0.5677582417582419,1.6817142857142857,-121.22716483516484,-93.80152671755725,-72.30534351145039,0.007633587786259542,428.7155963302753,289.6330275229358,-140.1834862385321,0.0
1760130049.9008691,236,-0.5893186813186814,1.7392087912087915,-128.5720879120879,-78.16793893129771,-70.35114503816794,0.007633587786259542,487.4311926605505,242.6605504587156,-140.1834862385321,0.0
1760130049.9116304,237,1.3583076923076924,0.03593406593406594,-123.10292307692308,-78.16793893129771,-70.35114503816794,0.007633587786259542,546.1467889908257,242.6605504587156,-116.69724770642202,0.0
1760130049.9329016,238,-0.46714285714285714,1.7607692307692309,-126.74663736263737,-89.89312977099236,-64.4885496183206,0.007633587786259542,604.862385321101,266.1467889908257,-140.1834862385321,0.0
1760130049.9648445,239,-0.5102637362637363,1.7104615384615385,-121.2559120879121,-82.07633587786259,-62.534351145038165,0.007633587786259542,663.5779816513761,266.1467889908257,-140.1834862385321,0.0
1760130049.9755988,240,-0.4958901098901099,1.7104615384615385,-119.32984615384615,-82.07633587786259,-74.25954198473282,0.007633587786259542,722.2935779816514,289.6330275229358,-93.21100917431193,0.0
1760130049.9968088,241,-0.4096483516483516,1.8254505494505495,-134.16342857142857,-89.89312977099236,-62.534351145038165,0.007633587786259542,781.0091743119267,266.1467889908257,-116.69724770642202,0.0
1760130050.0074673,242,-0.6108791208791209,1.6457802197802198,-146.9775164835165,-84.03053435114504,-76.21374045801527,0.007633587786259542,839.7247706422017,266.1467889908257,-116.69724770642202,0.0
1760130050.0288026,243,-0.459956043956044,1.7104615384615385,-128.66551648351648,-78.16793893129771,-72.30534351145039,0.007633587786259542,898.440366972477,266.1467889908257,-69.72477064220183,0.0
1760130050.049984,244,-0.46714285714285714,1.688901098901099,-121.21279120879122,-78.16793893129771,-58.62595419847328,0.007633587786259542,957.1559633027523,266.1467889908257,-69.72477064220183,0.0
1760130050.060727,245,-0.44558241758241757,1.617032967032967,-128.73738461538463,-80.12213740458016,-70.35114503816794,0.007633587786259542,1015.8715596330275,242.6605504587156,-93.21100917431193,0.0
1760130050.0819867,246,-0.35215384615384615,1.7535824175824177,-123.07417582417582,-78.16793893129771,-78.16793893129771,0.007633587786259542,1074.5871559633026,289.6330275229358,-93.21100917431193,0.0
1760130050.1138499,247,-0.5174505494505495,1.7607692307692309,-141.4292967032967,-85.98473282442748,-60.58015267175573,0.007633587786259542,1133.302752293578,266.1467889908257,-116.69724770642202,0.0
1760130050.1246414,248,-0.5030769230769231,1.7032747252747253,-126.83287912087913,-84.03053435114504,-56.67175572519084,0.007633587786259542,1192.0183486238532,242.6605504587156,-140.1834862385321,0.0
1760130050.145823,249,-0.4815164835164835,1.8182637362637364,-135.9673186813187,-87.93893129770993,-58.62595419847328,0.007633587786259542,1250.7339449541284,266.1467889908257,-93.21100917431193,0.0
1760130050.1565645,250,-0.459956043956044,1.5810989010989014,-137.74964835164835,-70.35114503816794,-58.62595419847328,0.007633587786259542,1309.4495412844037,266.1467889908257,-163.6697247706422,0.0
1760130050.1778142,251,1.3583076923076924,0.0071868131868131875,-121.24153846153847,-84.03053435114504,-74.25954198473282,0.007633587786259542,1368.1651376146788,266.1467889908257,-116.69724770642202,0.0
1760130050.209578,252,-0.4743296703296704,1.7463956043956046,-128.60083516483516,-82.07633587786259,-68.3969465648855,0.007633587786259542,1426.880733944954,266.1467889908257,-46.23853211009175,0.0
1760130050.2202778,253,-0.4815164835164835,1.5379780219780221,-124.89243956043956,-82.07633587786259,-66.44274809160305,0.007633587786259542,1485.5963302752293,313.1192660550459,-140.1834862385321,0.0
1760130050.2417867,254,-0.5174505494505495,1.7607692307692309,-134.21373626373625,-76.21374045801527,-68.3969465648855,0.007633587786259542,1544.3119266055046,266.1467889908257,-116.69724770642202,0.0
1760130050.2732432,255,-0.43120879120879124,1.5954725274725277,-124.98586813186813,-70.35114503816794,-74.25954198473282,0.007633587786259542,1603.0275229357799,242.6605504587156,-116.69724770642202,0.0
1760130050.305311,256,-0.539010989010989,1.6673406593406594,-130.44065934065935,-84.03053435114504,-78.16793893129771,0.007633587786259542,1661.7431192660551,266.1467889908257,-69.72477064220183,0.0
1760130050.3159757,257,-0.44558241758241757,1.6529670329670332,-123.08136263736264,-95.7557251908397,-60.58015267175573,0.007633587786259542,1720.4587155963302,242.6605504587156,-116.69724770642202,0.0
1760130050.3267179,258,-0.4743296703296704,1.7176483516483516,-134.10593406593406,-72.30534351145039,-68.3969465648855,0.007633587786259542,1779.1743119266055,266.1467889908257,-116.69724770642202,0.0
1760130050.3376937,259,-0.43839560439560443,1.6314065934065933,-121.34215384615386,-84.03053435114504,-70.35114503816794,0.007633587786259542,1837.8899082568807,266.1467889908257,-93.21100917431193,0.0
1760130050.3694494,260,-0.5246373626373626,1.7104615384615385,-126.78257142857144,-76.21374045801527,-64.4885496183206,0.007633587786259542,1896.605504587156,289.6330275229358,-140.1834862385321,0.0
1760130050.380235,261,-0.4096483516483516,1.6529670329670332,-123.09573626373627,-87.93893129770993,-70.35114503816794,0.007633587786259542,1955.3211009174313,242.6605504587156,-140.1834862385321,0.0
1760130050.4017103,262,-0.4958901098901099,1.7751428571428571,-119.36578021978022,-84.03053435114504,-64.4885496183206,0.007633587786259542,2014.0366972477063,242.6605504587156,-93.21100917431193,0.0
1760130050.4125328,263,-0.4527692307692308,1.6385934065934065,-137.8287032967033,-84.03053435114504,-64.4885496183206,0.007633587786259542,2072.7522935779816,266.1467889908257,-116.69724770642202,0.0
1760130050.433722,264,-0.4527692307692308,1.7607692307692309,-134.19217582417582,-82.07633587786259,-72.30534351145039,0.007633587786259542,2131.467889908257,242.6605504587156,-116.69724770642202,0.0
1760130050.4652946,265,-0.4096483516483516,1.767956043956044,-124.92837362637363,-72.30534351145039,-76.21374045801527,0.007633587786259542,2190.183486238532,219.1743119266055,-140.1834862385321,0.0
1760130050.476032,266,-0.5605714285714286,1.6242197802197802,-132.17268131868133,-74.25954198473282,-60.58015267175573,0.007633587786259542,2248.8990825688074,242.6605504587156,-116.69724770642202,0.0
1760130050.4973752,267,-0.43120879120879124,1.6242197802197802,-128.6295824175824,-89.89312977099236,-62.534351145038165,0.007633587786259542,2307.6146788990827,266.1467889908257,-93.21100917431193,0.0
1760130050.5081697,268,-0.3809010989010989,1.7392087912087915,-124.94993406593406,-87.93893129770993,-78.16793893129771,0.007633587786259542,2366.330275229358,219.1743119266055,-116.69724770642202,0.0
1760130050.529536,269,-0.4527692307692308,1.609846153846154,-119.40171428571429,-72.30534351145039,-72.30534351145039,0.007633587786259542,2425.0458715596333,266.1467889908257,-140.1834862385321,0.0
1760130050.5613198,270,-0.5102637362637363,1.6242197802197802,-132.3810989010989,-91.8473282442748,-62.534351145038165,0.007633587786259542,2483.761467889908,266.1467889908257,-93.21100917431193,0.0
1760130050.5720673,271,-0.44558241758241757,1.7032747252747253,-117.59782417582419,-84.03053435114504,-76.21374045801527,0.007633587786259542,2542.4770642201834,219.1743119266055,-116.69724770642202,0.0
1760130050.5933356,272,-0.5246373626373626,1.5523516483516484,-132.3810989010989,-78.16793893129771,-76.21374045801527,0.007633587786259542,2601.1926605504586,266.1467889908257,-163.6697247706422,0.0
1760130050.625214,273,-0.5174505494505495,1.7104615384615385,-119.3514065934066,-82.07633587786259,-84.03053435114504,0.007633587786259542,2659.908256880734,289.6330275229358,-116.69724770642202,0.0
1760130050.6358902,274,-0.5246373626373626,1.724835164835165,-124.97868131868131,-80.12213740458016,-64.4885496183206,0.007633587786259542,2718.623853211009,266.1467889908257,-116.69724770642202,0.0
1760130050.657246,275,-0.5246373626373626,1.6314065934065933,-113.86786813186814,-78.16793893129771,-66.44274809160305,0.007633587786259542,2777.3394495412845,336.60550458715596,-116.69724770642202,0.0
1760130050.6679015,276,-0.4096483516483516,1.7176483516483516,-137.7783956043956,-70.35114503816794,-78.16793893129771,0.007633587786259542,2836.0550458715597,266.1467889908257,-116.69724770642202,0.0
1760130050.689188,277,1.3654945054945056,0.0071868131868131875,-134.07,-82.07633587786259,-60.58015267175573,0.007633587786259542,2894.770642201835,242.6605504587156,-140.1834862385321,0.0
1760130050.72101,278,-0.4743296703296704,1.7535824175824177,-124.78463736263735,-78.16793893129771,-76.21374045801527,0.007633587786259542,2953.4862385321103,313.1192660550459,-116.69724770642202,0.0
1760130050.7317457,279,-0.6180659340659341,1.6385934065934065,-124.89962637362638,-82.07633587786259,-60.58015267175573,0.007633587786259542,-3000.2752293577983,266.1467889908257,-140.1834862385321,0.0
1760130050.7530081,280,-0.5533846153846155,1.6745274725274726,-128.6152087912088,-82.07633587786259,-68.3969465648855,0.007633587786259542,-2941.559633027523,242.6605504587156,-116.69724770642202,0.0
1760130050.7847064,281,-0.4527692307692308,1.5882857142857145,-132.25892307692308,-74.25954198473282,-66.44274809160305,0.007633587786259542,-2882.8440366972477,242.6605504587156,-140.1834862385321,0.0
1760130050.7953966,282,-0.4024615384615385,1.6314065934065933,-123.1101098901099,-80.12213740458016,-62.534351145038165,0.007633587786259542,-2824.1284403669724,242.6605504587156,-93.21100917431193,0.0
1760130050.8061008,283,-0.5605714285714286,1.688901098901099,-125.0218021978022,-84.03053435114504,-64.4885496183206,0.007633587786259542,-2765.412844036697,242.6605504587156,-93.21100917431193,0.0
1760130050.816895,284,-0.43120879120879124,1.7320219780219783,-130.50534065934067,-76.21374045801527,-62.534351145038165,0.007633587786259542,-2706.697247706422,242.6605504587156,-93.21100917431193,0.0
1760130050.8486822,285,-0.4815164835164835,1.7032747252747253,-128.59364835164834,-70.35114503816794,-54.717557251908396,0.007633587786259542,-2647.9816513761466,242.6605504587156,-46.23853211009175,0.0
1760130050.8593948,286,-0.539010989010989,1.6745274725274726,-134.19217582417582,-85.98473282442748,-62.534351145038165,0.007633587786259542,-2589.2660550458713,289.6330275229358,-116.69724770642202,0.0
1760130050.8806171,287,-0.4958901098901099,1.7320219780219783,-130.3975384615385,-85.98473282442748,-58.62595419847328,0.007633587786259542,-2530.550458715596,242.6605504587156,-140.1834862385321,0.0
1760130050.9122431,288,-0.4958901098901099,1.7607692307692309,-134.0771868131868,-66.44274809160305,-62.534351145038165,0.007633587786259542,-2471.834862385321,242.6605504587156,-163.6697247706422,0.0
1760130050.9230595,289,-0.4815164835164835,1.7176483516483516,-121.3637142857143,-89.89312977099236,-72.30534351145039,0.007633587786259542,-2413.119266055046,289.6330275229358,-140.1834862385321,0.0
1760130050.9548259,290,-0.5677582417582419,1.767956043956044,-134.15624175824175,-84.03053435114504,-62.534351145038165,0.007633587786259542,-2354.4036697247707,266.1467889908257,-116.69724770642202,0.0
1760130050.965383,291,-0.4743296703296704,1.6457802197802198,-132.2804835164835,-72.30534351145039,-66.44274809160305,0.007633587786259542,-2295.6880733944954,266.1467889908257,-116.69724770642202,0.0
1760130050.9863236,292,-0.4527692307692308,1.7032747252747253,-134.04843956043956,-76.21374045801527,-62.534351145038165,0.007633587786259542,-2236.97247706422,219.1743119266055,-163.6697247706422,0.0
1760130050.9971044,293,-0.4527692307692308,1.724835164835165,-121.20560439560441,-82.07633587786259,-66.44274809160305,0.007633587786259542,-2178.256880733945,289.6330275229358,-116.69724770642202,0.0
1760130051.0183265,294,-0.3880879120879121,1.7823296703296703,-128.52178021978023,-85.98473282442748,-66.44274809160305,0.007633587786259542,-2119.5412844036696,195.6880733944954,-116.69724770642202,0.0
1760130051.0500247,295,-0.5102637362637363,1.7032747252747253,-143.29786813186814,-74.25954198473282,-62.534351145038165,0.007633587786259542,-2060.8256880733943,313.1192660550459,-116.69724770642202,0.0
1760130051.0607362,296,-0.39527472527472535,1.7032747252747253,-113.9038021978022,-76.21374045801527,-64.4885496183206,0.007633587786259542,-2002.110091743119,289.6330275229358,-116.69724770642202,0.0
1760130051.0819824,297,-0.41683516483516486,1.6242197802197802,-128.6152087912088,-82.07633587786259,-62.534351145038165,0.007633587786259542,-1943.394495412844,289.6330275229358,-140.1834862385321,0.0
1760130051.1138632,298,-0.6036923076923078,1.7032747252747253,-123.10292307692308,-82.07633587786259,-60.58015267175573,0.007633587786259542,-1884.6788990825687,242.6605504587156,-140.1834862385321,0.0
1760130051.1246376,299,-0.5246373626373626,1.688901098901099,-126.75382417582418,-89.89312977099236,-66.44274809160305,0.007633587786259542,-1825.9633027522934,266.1467889908257,-140.1834862385321,0.0
1760130051.145932,300,-0.5605714285714286,1.7463956043956046,-126.78975824175825,-82.07633587786259,-80.12213740458016,0.007633587786259542,-1767.2477064220182,242.6605504587156,-163.6697247706422,0.0
1760130051.1566894,301,-0.5246373626373626,1.6673406593406594,-124.88525274725275,-80.12213740458016,-70.35114503816794,0.007633587786259542,-1708.5321100917429,266.1467889908257,-140.1834862385321,0.0
1760130051.1779075,302,-0.5030769230769231,1.767956043956044,-112.01367032967033,-82.07633587786259,-64.4885496183206,0.007633587786259542,-1649.8165137614678,289.6330275229358,-69.72477064220183,0.0
1760130051.2097256,303,-0.3880879120879121,1.724835164835165,-128.69426373626374,-72.30534351145039,-62.534351145038165,0.007633587786259542,-1591.1009174311926,219.1743119266055,-116.69724770642202,0.0
1760130051.2204375,304,-0.43839560439560443,1.6314065934065933,-126.80413186813188,-87.93893129770993,-70.35114503816794,0.007633587786259542,-1532.3853211009175,266.1467889908257,-93.21100917431193,0.0
1760130051.241849,305,-0.4743296703296704,1.6529670329670332,-123.08854945054945,-80.12213740458016,-64.4885496183206,0.007633587786259542,-1473.6697247706422,242.6605504587156,-140.1834862385321,0.0
1760130051.252457,306,-0.41683516483516486,1.6673406593406594,-143.21881318681318,-84.03053435114504,-66.44274809160305,0.007633587786259542,-1414.954128440367,266.1467889908257,-163.6697247706422,0.0
1760130051.2738564,307,-0.4743296703296704,1.6385934065934065,-117.56907692307693,-80.12213740458016,-54.717557251908396,0.007633587786259542,-1356.2385321100917,266.1467889908257,-116.69724770642202,0.0
1760130051.3057492,308,-0.5605714285714286,1.7463956043956046,-141.62334065934067,-76.21374045801527,-64.4885496183206,0.007633587786259542,-1297.5229357798164,266.1467889908257,-140.1834862385321,0.0
1760130051.3164191,309,-0.4743296703296704,1.617032967032967,-132.25173626373626,-84.03053435114504,-64.4885496183206,0.007633587786259542,-1238.8073394495414,289.6330275229358,-69.72477064220183,0.0
1760130051.3377745,310,-0.3305934065934066,1.6817142857142857,-124.9714945054945,-82.07633587786259,-62.534351145038165,0.007633587786259542,-1180.091743119266,313.1192660550459,-140.1834862385321,0.0
1760130051.3697684,311,-0.5174505494505495,1.7320219780219783,-123.1676043956044,-78.16793893129771,-68.3969465648855,0.007633587786259542,-1121.3761467889908,242.6605504587156,-140.1834862385321,0.0
1760130051.380448,312,-0.4958901098901099,1.7032747252747253,-134.15624175824175,-78.16793893129771,-72.30534351145039,0.007633587786259542,-1062.6605504587155,289.6330275229358,-163.6697247706422,0.0
1760130051.3912024,313,-0.3377802197802198,1.7176483516483516,-132.33797802197802,-84.03053435114504,-62.534351145038165,0.007633587786259542,-1003.9449541284404,219.1743119266055,-93.21100917431193,0.0
1760130051.401947,314,-0.42402197802197805,1.7535824175824177,-135.9745054945055,-82.07633587786259,-74.25954198473282,0.007633587786259542,-945.2293577981651,219.1743119266055,-116.69724770642202,0.0
1760130051.4335814,315,-0.4815164835164835,1.6673406593406594,-134.08437362637363,-85.98473282442748,-64.4885496183206,0.007633587786259542,-886.5137614678898,242.6605504587156,-140.1834862385321,0.0
1760130051.4547646,316,-0.3593406593406594,1.6529670329670332,-124.914,-84.03053435114504,-62.534351145038165,0.007633587786259542,-827.7981651376147,242.6605504587156,-140.1834862385321,0.0
1760130051.4654143,317,-0.459956043956044,1.7895164835164834,-132.25173626373626,-84.03053435114504,-78.16793893129771,0.007633587786259542,-769.0825688073394,266.1467889908257,-93.21100917431193,0.0
1760130051.4867933,318,-0.35215384615384615,1.7032747252747253,-121.21279120879122,-80.12213740458016,-74.25954198473282,0.007633587786259542,-710.3669724770642,242.6605504587156,-93.21100917431193,0.0
1760130051.5184228,319,-0.44558241758241757,1.688901098901099,-134.24967032967032,-85.98473282442748,-68.3969465648855,0.007633587786259542,-651.6513761467891,266.1467889908257,-93.21100917431193,0.0
1760130051.5501907,320,-0.5605714285714286,1.5810989010989014,-124.87806593406593,-85.98473282442748,-70.35114503816794,0.007633587786259542,-592.9357798165138,242.6605504587156,-116.69724770642202,0.0
1760130051.5607562,321,-0.4958901098901099,1.6601538461538463,-130.4119120879121,-87.93893129770993,-52.76335877862596,0.007633587786259542,-534.2201834862385,266.1467889908257,-140.1834862385321,0.0
1760130051.5711806,322,-0.42402197802197805,1.7535824175824177,-137.78558241758242,-82.07633587786259,-60.58015267175573,0.007633587786259542,-475.50458715596335,289.6330275229358,-140.1834862385321,0.0
1760130051.59217,323,-0.5677582417582419,1.8182637362637364,-123.12448351648352,-89.89312977099236,-66.44274809160305,0.007633587786259542,-416.7889908256881,266.1467889908257,-140.1834862385321,0.0
1760130051.623931,324,-0.5533846153846155,1.7823296703296703,-124.92837362637363,-84.03053435114504,-56.67175572519084,0.007633587786259542,-358.0733944954128,219.1743119266055,-116.69724770642202,0.0
1760130051.6346912,325,-0.5030769230769231,1.6745274725274726,-124.8636923076923,-80.12213740458016,-76.21374045801527,0.007633587786259542,-299.35779816513764,266.1467889908257,-163.6697247706422,0.0
1760130051.6558964,326,-0.3880879120879121,1.8182637362637364,-126.73945054945055,-78.16793893129771,-66.44274809160305,0.007633587786259542,-240.6422018348624,266.1467889908257,-163.6697247706422,0.0
1760130051.6663735,327,-0.4743296703296704,1.5092307692307694,-123.16041758241758,-89.89312977099236,-70.35114503816794,0.007633587786259542,-181.92660550458714,266.1467889908257,-116.69724770642202,0.0
1760130051.6873767,328,-0.5533846153846155,1.7104615384615385,-121.15529670329671,-87.93893129770993,-72.30534351145039,0.007633587786259542,-123.21100917431194,289.6330275229358,-116.69724770642202,0.0
1760130051.719234,329,-0.5030769230769231,1.6601538461538463,-123.08854945054945,-80.12213740458016,-66.44274809160305,0.007633587786259542,-64.4954128440367,289.6330275229358,-140.1834862385321,0.0
1760130051.7299836,330,-0.3880879120879121,1.6960879120879122,-128.5577142857143,-82.07633587786259,-66.44274809160305,0.007633587786259542,-5.779816513761468,242.6605504587156,-140.1834862385321,0.0
1760130051.7512178,331,-0.5030769230769231,1.6673406593406594,-126.75382417582418,-80.12213740458016,-58.62595419847328,0.007633587786259542,52.93577981651376,266.23853211009174,-93.21100917431193,0.0
1760130051.7618134,332,-0.5461978021978022,1.7463956043956046,-141.53709890109891,-80.12213740458016,-68.3969465648855,0.007633587786259542,111.65137614678899,219.26605504587155,-93.21100917431193,0.0
1760130051.783106,333,-0.5246373626373626,1.688901098901099,-124.98586813186813,-85.98473282442748,-68.3969465648855,0.007633587786259542,170.36697247706422,266.23853211009174,-116.69724770642202,0.0
1760130051.814581,334,-0.46714285714285714,1.617032967032967,-128.5577142857143,-80.12213740458016,-64.4885496183206,0.007633587786259542,229.08256880733947,266.23853211009174,-140.1834862385321,0.0
1760130051.8252807,335,-0.5677582417582419,1.7104615384615385,-141.54428571428573,-76.21374045801527,-80.12213740458016,0.007633587786259542,287.7981651376147,242.75229357798165,-116.69724770642202,0.0
1760130051.8465986,336,-0.5677582417582419,1.6960879120879122,-121.32059340659342,-85.98473282442748,-60.58015267175573,0.007633587786259542,346.51376146788994,266.23853211009174,-93.21100917431193,0.0
1760130051.8574018,337,-0.4958901098901099,1.7320219780219783,-126.83287912087913,-76.21374045801527,-62.534351145038165,0.007633587786259542,405.22935779816515,242.75229357798165,-140.1834862385321,0.0
1760130051.8788102,338,-0.4815164835164835,1.767956043956044,-128.63676923076923,-84.03053435114504,-64.4885496183206,0.007633587786259542,463.9449541284404,266.23853211009174,-116.69724770642202,0.0
1760130051.9106164,339,-0.43120879120879124,1.7176483516483516,-132.38828571428573,-78.16793893129771,-70.35114503816794,0.007633587786259542,522.6605504587156,219.26605504587155,-140.1834862385321,0.0
1760130051.9213235,340,-0.5605714285714286,1.8110769230769233,-121.16967032967034,-80.12213740458016,-64.4885496183206,0.007633587786259542,581.3761467889908,242.75229357798165,-116.69724770642202,0.0
1760130051.9426823,341,-0.4096483516483516,1.7607692307692309,-130.44065934065935,-82.07633587786259,-56.67175572519084,0.007633587786259542,640.0917431192661,266.23853211009174,-140.1834862385321,0.0
1760130051.9745429,342,-0.48870329670329676,1.7535824175824177,-126.75382417582418,-82.07633587786259,-60.58015267175573,0.007633587786259542,698.8073394495414,266.23853211009174,-116.69724770642202,0.0
1760130051.985248,343,-0.46714285714285714,1.6673406593406594,-139.61103296703297,-82.07633587786259,-62.534351145038165,0.007633587786259542,757.5229357798165,219.26605504587155,-116.69724770642202,0.0
1760130052.0065475,344,-0.5030769230769231,1.6601538461538463,-130.42628571428574,-70.35114503816794,-70.35114503816794,0.007633587786259542,816.2385321100917,266.23853211009174,-140.1834862385321,0.0
1760130052.017247,345,-0.5893186813186814,1.6817142857142857,-132.3739120879121,-72.30534351145039,-64.4885496183206,0.007633587786259542,874.954128440367,289.72477064220186,-163.6697247706422,0.0
1760130052.0385807,346,-0.4743296703296704,1.767956043956044,-134.1706153846154,-80.12213740458016,-62.534351145038165,0.007633587786259542,933.6697247706421,289.72477064220186,-140.1834862385321,0.0
1760130052.0703099,347,-0.5318241758241758,1.7535824175824177,-124.92837362637363,-80.12213740458016,-70.35114503816794,0.007633587786259542,992.3853211009174,266.23853211009174,-116.69724770642202,0.0
1760130052.0810828,348,-0.5893186813186814,1.6314065934065933,-134.13468131868132,-80.12213740458016,-64.4885496183206,0.007633587786259542,1051.1009174311926,242.75229357798165,-116.69724770642202,0.0
1760130052.1023664,349,-0.5677582417582419,1.6457802197802198,-123.18197802197803,-76.21374045801527,-70.35114503816794,0.007633587786259542,1109.8165137614678,289.72477064220186,-116.69724770642202,0.0
1760130052.1131032,350,-0.5605714285714286,1.7320219780219783,-137.79276923076924,-76.21374045801527,-70.35114503816794,0.007633587786259542,1168.532110091743,266.23853211009174,-93.21100917431193,0.0
1760130052.134384,351,-0.44558241758241757,1.7392087912087915,-132.3236043956044,-87.93893129770993,-60.58015267175573,0.007633587786259542,1227.2477064220184,266.23853211009174,-140.1834862385321,0.0
1760130052.1661556,352,-0.4815164835164835,1.7535824175824177,-115.65738461538463,-85.98473282442748,-66.44274809160305,0.007633587786259542,1285.9633027522937,266.23853211009174,-93.21100917431193,0.0
1760130052.1768568,353,-0.4958901098901099,1.6817142857142857,-134.1274945054945,-85.98473282442748,-64.4885496183206,0.007633587786259542,1344.6788990825687,242.75229357798165,-140.1834862385321,0.0
1760130052.198197,354,-0.5605714285714286,1.7032747252747253,-123.16041758241758,-76.21374045801527,-66.44274809160305,0.007633587786259542,1403.394495412844,266.23853211009174,-140.1834862385321,0.0
1760130052.208934,355,-0.459956043956044,1.6960879120879122,-119.4663956043956,-87.93893129770993,-58.62595419847328,0.007633587786259542,1462.1100917431193,289.72477064220186,-46.23853211009175,0.0
1760130052.2303002,356,-0.6036923076923078,1.6529670329670332,-130.40472527472528,-93.80152671755725,-58.62595419847328,0.007633587786259542,1520.8256880733945,242.75229357798165,-116.69724770642202,0.0
1760130052.2618716,357,-0.4743296703296704,1.6242197802197802,-123.1172967032967,-82.07633587786259,-70.35114503816794,0.007633587786259542,1579.5412844036698,219.26605504587155,-93.21100917431193,0.0
1760130052.272286,358,-0.5030769230769231,1.767956043956044,-124.9714945054945,-76.21374045801527,-58.62595419847328,0.007633587786259542,1638.2568807339449,242.75229357798165,-116.69724770642202,0.0
1760130052.2935696,359,-0.6396263736263736,1.7895164835164834,-119.41608791208792,-80.12213740458016,-60.58015267175573,0.007633587786259542,1696.9724770642201,242.75229357798165,-93.21100917431193,0.0
1760130052.324938,360,-0.5246373626373626,1.7176483516483516,-126.71789010989012,-97.70992366412214,-70.35114503816794,0.007633587786259542,1755.6880733944954,266.23853211009174,-116.69724770642202,0.0
1760130052.346178,361,-0.43839560439560443,1.724835164835165,-119.42327472527472,-78.16793893129771,-74.25954198473282,0.007633587786259542,1814.4036697247707,219.26605504587155,-163.6697247706422,0.0
1760130052.3568087,362,-0.5030769230769231,1.688901098901099,-132.33079120879123,-76.21374045801527,-68.3969465648855,0.007633587786259542,1873.119266055046,242.75229357798165,-116.69724770642202,0.0
1760130052.3776696,363,-0.5965054945054945,1.6601538461538463,-130.53408791208793,-74.25954198473282,-72.30534351145039,0.007633587786259542,1931.8348623853212,266.23853211009174,-116.69724770642202,0.0
1760130052.3880982,364,-0.4096483516483516,1.724835164835165,-124.89243956043956,-74.25954198473282,-62.534351145038165,0.007633587786259542,1990.5504587155963,266.23853211009174,-140.1834862385321,0.0
1760130052.4090197,365,-0.5102637362637363,1.7535824175824177,-128.5649010989011,-85.98473282442748,-76.21374045801527,0.007633587786259542,2049.266055045872,242.75229357798165,-69.72477064220183,0.0
1760130052.4197698,366,-0.5605714285714286,1.7104615384615385,-145.20237362637363,-74.25954198473282,-56.67175572519084,0.007633587786259542,2107.9816513761466,266.23853211009174,-140.1834862385321,0.0
1760130052.441032,367,-0.5102637362637363,1.7607692307692309,-117.49720879120879,-87.93893129770993,-72.30534351145039,0.007633587786259542,2166.697247706422,242.75229357798165,-116.69724770642202,0.0
1760130052.4725354,368,-0.44558241758241757,1.6960879120879122,-123.08136263736264,-76.21374045801527,-64.4885496183206,0.007633587786259542,2225.412844036697,266.23853211009174,-116.69724770642202,0.0
1760130052.4830906,369,-0.4958901098901099,1.7392087912087915,-121.19123076923078,-85.98473282442748,-64.4885496183206,0.007633587786259542,2284.1284403669724,242.75229357798165,-116.69724770642202,0.0
1760130052.5040867,370,-0.4743296703296704,1.7895164835164834,-123.1172967032967,-72.30534351145039,-68.3969465648855,0.007633587786259542,2342.8440366972477,289.72477064220186,-116.69724770642202,0.0
1760130052.5358317,371,-0.4815164835164835,1.7751428571428571,-132.33079120879123,-85.98473282442748,-58.62595419847328,0.007633587786259542,2401.559633027523,289.72477064220186,-116.69724770642202,0.0
1760130052.5465662,372,-0.5605714285714286,1.6673406593406594,-124.97868131868131,-87.93893129770993,-80.12213740458016,0.007633587786259542,2460.2752293577983,242.75229357798165,-93.21100917431193,0.0
1760130052.5678554,373,-0.5461978021978022,1.7032747252747253,-132.20142857142858,-72.30534351145039,-60.58015267175573,0.007633587786259542,2518.9908256880735,266.23853211009174,-116.69724770642202,0.0
1760130052.5996761,374,-0.4743296703296704,1.7535824175824177,-152.496989010989,-78.16793893129771,-76.21374045801527,0.007633587786259542,2577.706422018349,242.75229357798165,-116.69724770642202,0.0
1760130052.6103508,375,-0.4743296703296704,1.7463956043956046,-115.83705494505496,-74.25954198473282,-64.4885496183206,0.007633587786259542,2636.422018348624,219.26605504587155,-140.1834862385321,0.0
1760130052.631739,376,-0.5318241758241758,1.6385934065934065,-130.48378021978024,-87.93893129770993,-70.35114503816794,0.007633587786259542,2695.1376146788994,266.23853211009174,-69.72477064220183,0.0
1760130052.6424205,377,-0.5893186813186814,1.5882857142857145,-113.9038021978022,-82.07633587786259,-74.25954198473282,0.007633587786259542,2753.853211009174,219.26605504587155,-116.69724770642202,0.0
1760130052.663821,378,-0.3880879120879121,1.7823296703296703,-134.05562637362638,-85.98473282442748,-72.30534351145039,0.007633587786259542,2812.5688073394494,266.23853211009174,-140.1834862385321,0.0
1760130052.6956494,379,-0.2946593406593407,1.7104615384615385,-121.29184615384617,-78.16793893129771,-64.4885496183206,0.007633587786259542,2871.2844036697247,266.23853211009174,-116.69724770642202,0.0
1760130052.7063308,380,-0.4096483516483516,1.7823296703296703,-121.27028571428572,-85.98473282442748,-64.4885496183206,0.007633587786259542,2930.0,219.26605504587155,-116.69724770642202,0.0
1760130052.7171447,381,-0.4024615384615385,1.6385934065934065,-132.31641758241759,-80.12213740458016,-66.44274809160305,0.007633587786259542,2988.7155963302753,266.23853211009174,-93.21100917431193,0.0
1760130052.727909,382,-0.539010989010989,1.573912087912088,-128.52896703296705,-70.35114503816794,-66.44274809160305,0.007633587786259542,-2965.045871559633,242.75229357798165,-163.6697247706422,0.0
1760130052.7596495,383,-0.539010989010989,1.6817142857142857,-126.83287912087913,-87.93893129770993,-60.58015267175573,0.007633587786259542,-2906.3302752293575,336.69724770642205,-187.1559633027523,0.0
1760130052.7915666,384,-0.5318241758241758,1.2073846153846155,-121.22716483516484,-84.03053435114504,-56.67175572519084,0.007633587786259542,-2847.6146788990823,54.862385321100916,-69.72477064220183,0.0
1760130052.8232353,385,1.308,0.7905494505494507,-126.68195604395605,-76.21374045801527,-68.3969465648855,0.007633587786259542,-2788.8990825688074,383.66972477064223,-93.21100917431193,0.0
1760130052.8339915,386,-0.5893186813186814,0.6827472527472528,-130.4119120879121,-85.98473282442748,-60.58015267175573,0.007633587786259542,-2730.183486238532,407.15596330275224,-69.72477064220183,0.0
1760130052.8447118,387,1.422989010989011,0.10061538461538462,-134.1203076923077,-72.30534351145039,-70.35114503816794,0.007633587786259542,-2671.467889908257,148.80733944954127,-116.69724770642202,0.0
1760130052.8555198,388,-0.42402197802197805,1.8326373626373627,-115.75800000000001,-82.07633587786259,-66.44274809160305,0.007633587786259542,-2612.7522935779816,407.15596330275224,-140.1834862385321,0.0
1760130052.887235,389,-0.5965054945054945,1.1355164835164837,-124.87087912087912,-85.98473282442748,-60.58015267175573,0.007633587786259542,-2554.0366972477063,266.23853211009174,-140.1834862385321,0.0
1760130052.8979783,390,1.3439340659340662,0.30903296703296707,-132.33797802197802,-82.07633587786259,-54.717557251908396,0.007633587786259542,-2495.321100917431,172.29357798165137,-140.1834862385321,0.0
1760130052.9192708,391,1.3439340659340662,0.0,-132.25173626373626,-80.12213740458016,-70.35114503816794,0.007633587786259542,-2436.605504587156,289.72477064220186,-116.69724770642202,0.0
1760130052.9511764,392,-0.5030769230769231,1.5020439560439562,-119.4592087912088,-70.35114503816794,-76.21374045801527,0.007633587786259542,-2377.8899082568805,266.23853211009174,-46.23853211009175,0.0
1760130052.9618704,393,-0.459956043956044,1.8326373626373627,-130.46221978021978,-80.12213740458016,-70.35114503816794,0.007633587786259542,-2319.1743119266052,219.26605504587155,-116.69724770642202,0.0
1760130052.9726152,394,-0.4815164835164835,1.617032967032967,-124.99305494505494,-80.12213740458016,-68.3969465648855,0.007633587786259542,-2260.45871559633,289.72477064220186,-163.6697247706422,0.0
1760130052.9835305,395,-0.4527692307692308,1.6457802197802198,-146.99907692307693,-85.98473282442748,-72.30534351145039,0.007633587786259542,-2201.7431192660547,289.72477064220186,-116.69724770642202,0.0
1760130053.015384,396,-0.42402197802197805,1.7032747252747253,-121.27747252747254,-91.8473282442748,-62.534351145038165,0.007633587786259542,-2143.02752293578,219.26605504587155,-163.6697247706422,0.0
1760130053.0472314,397,-0.5174505494505495,1.7176483516483516,-123.0598021978022,-84.03053435114504,-60.58015267175573,0.007633587786259542,-2084.3119266055046,266.23853211009174,-163.6697247706422,0.0
1760130053.0579853,398,-0.41683516483516486,1.7463956043956046,-134.11312087912088,-93.80152671755725,-74.25954198473282,0.007633587786259542,-2025.5963302752293,195.77981651376146,-116.69724770642202,0.0
1760130053.0789168,399,-0.5030769230769231,1.7320219780219783,-130.49815384615385,-91.8473282442748,-56.67175572519084,0.007633587786259542,-1966.880733944954,242.75229357798165,-116.69724770642202,0.0
1760130053.1106174,400,-0.4958901098901099,1.6960879120879122,-134.15624175824175,-93.80152671755725,-66.44274809160305,0.007633587786259542,-1908.1651376146788,266.23853211009174,-116.69724770642202,0.0
1760130053.1213243,401,-0.42402197802197805,1.724835164835165,-126.8185054945055,-89.89312977099236,-56.67175572519084,0.007633587786259542,-1849.4495412844035,266.23853211009174,-140.1834862385321,0.0
1760130053.132086,402,1.2720659340659342,0.014373626373626375,-123.06698901098902,-84.03053435114504,-70.35114503816794,0.007633587786259542,-1790.7339449541282,266.23853211009174,-163.6697247706422,0.0
1760130053.1427808,403,-0.44558241758241757,1.688901098901099,-134.10593406593406,-89.89312977099236,-64.4885496183206,0.007633587786259542,-1732.018348623853,266.23853211009174,-140.1834862385321,0.0
1760130053.1640635,404,-0.4527692307692308,1.6817142857142857,-123.09573626373627,-84.03053435114504,-62.534351145038165,0.007633587786259542,-1673.302752293578,266.23853211009174,-140.1834862385321,0.0
1760130053.1957853,405,-0.39527472527472535,1.6385934065934065,-132.30204395604397,-85.98473282442748,-54.717557251908396,0.007633587786259542,-1614.5871559633026,289.72477064220186,-69.72477064220183,0.0
1760130053.2064614,406,-0.5461978021978022,1.6529670329670332,-121.26309890109891,-76.21374045801527,-74.25954198473282,0.007633587786259542,-1555.8715596330276,195.77981651376146,-69.72477064220183,0.0
1760130053.2278042,407,-0.39527472527472535,1.7032747252747253,-128.59364835164834,-74.25954198473282,-78.16793893129771,0.007633587786259542,-1497.1559633027523,289.72477064220186,-93.21100917431193,0.0
1760130053.2593951,408,-0.5246373626373626,1.609846153846154,-150.76496703296704,-72.30534351145039,-62.534351145038165,0.007633587786259542,-1438.440366972477,219.26605504587155,-69.72477064220183,0.0
1760130053.2702136,409,-0.574945054945055,1.7176483516483516,-128.67989010989012,-78.16793893129771,-62.534351145038165,0.007633587786259542,-1379.7247706422017,242.75229357798165,-116.69724770642202,0.0
1760130053.2915542,410,-0.4527692307692308,1.617032967032967,-123.15323076923077,-84.03053435114504,-80.12213740458016,0.007633587786259542,-1321.0091743119267,266.23853211009174,-116.69724770642202,0.0
1760130053.3022459,411,-0.3737142857142858,1.617032967032967,-115.7508131868132,-87.93893129770993,-66.44274809160305,0.007633587786259542,-1262.2935779816514,219.26605504587155,-116.69724770642202,0.0
1760130053.3236117,412,-0.46714285714285714,1.7895164835164834,-143.2691208791209,-80.12213740458016,-80.12213740458016,0.007633587786259542,-1203.5779816513761,289.72477064220186,-140.1834862385321,0.0
1760130053.3552816,413,-0.48870329670329676,1.4876703296703295,-130.455032967033,-82.07633587786259,-62.534351145038165,0.007633587786259542,-1144.8623853211009,242.75229357798165,-140.1834862385321,0.0
1760130053.3659961,414,-0.459956043956044,1.688901098901099,-121.24872527472529,-84.03053435114504,-74.25954198473282,0.007633587786259542,-1086.1467889908256,242.75229357798165,-116.69724770642202,0.0
1760130053.387296,415,-0.4527692307692308,1.6745274725274726,-124.914,-82.07633587786259,-68.3969465648855,0.007633587786259542,-1027.4311926605503,289.72477064220186,-140.1834862385321,0.0
1760130053.4190965,416,-0.539010989010989,1.6745274725274726,-128.57927472527473,-62.534351145038165,-64.4885496183206,0.007633587786259542,-968.7155963302752,266.23853211009174,-140.1834862385321,0.0
1760130053.4295638,417,-0.5030769230769231,1.6960879120879122,-135.88826373626375,-84.03053435114504,-66.44274809160305,0.007633587786259542,-910.0,266.23853211009174,-116.69724770642202,0.0
1760130053.4503713,418,-0.459956043956044,1.6529670329670332,-123.09573626373627,-80.12213740458016,-68.3969465648855,0.007633587786259542,-851.2844036697247,219.26605504587155,-140.1834862385321,0.0
1760130053.4610686,419,-0.5030769230769231,1.7032747252747253,-123.0023076923077,-84.03053435114504,-64.4885496183206,0.007633587786259542,-792.5688073394494,266.23853211009174,-116.69724770642202,0.0
1760130053.4822748,420,-0.6036923076923078,1.5954725274725277,-115.70769230769233,-76.21374045801527,-62.534351145038165,0.007633587786259542,-733.8532110091744,219.26605504587155,-93.21100917431193,0.0
1760130053.493097,421,-0.42402197802197805,1.7104615384615385,-139.7332087912088,-82.07633587786259,-66.44274809160305,0.007633587786259542,-675.1376146788991,242.75229357798165,-69.72477064220183,0.0
1760130053.5249095,422,-0.459956043956044,1.617032967032967,-128.60802197802198,-89.89312977099236,-72.30534351145039,0.007633587786259542,-616.4220183486239,242.75229357798165,-93.21100917431193,0.0
1760130053.5566807,423,-0.6755604395604397,1.6817142857142857,-123.14604395604395,-80.12213740458016,-82.07633587786259,0.007633587786259542,-557.7064220183487,266.23853211009174,-116.69724770642202,0.0
1760130053.5672448,424,-0.3880879120879121,1.8326373626373627,-119.38734065934067,-78.16793893129771,-72.30534351145039,0.007633587786259542,-498.9908256880734,266.23853211009174,-69.72477064220183,0.0
1760130053.588363,425,-0.48870329670329676,1.6745274725274726,-110.23134065934066,-95.7557251908397,-70.35114503816794,0.007633587786259542,-440.2752293577982,289.72477064220186,-140.1834862385321,0.0
1760130053.6095304,426,-0.4527692307692308,1.688901098901099,-132.3236043956044,-84.03053435114504,-58.62595419847328,0.007633587786259542,-381.5596330275229,266.23853211009174,-93.21100917431193,0.0
1760130053.6203523,427,-0.42402197802197805,1.724835164835165,-117.63375824175824,-80.12213740458016,-72.30534351145039,0.007633587786259542,-322.8440366972477,242.75229357798165,-116.69724770642202,0.0
1760130053.6522212,428,-0.5174505494505495,1.7607692307692309,-124.87806593406593,-80.12213740458016,-76.21374045801527,0.007633587786259542,-264.1284403669725,313.2110091743119,-93.21100917431193,0.0
1760130053.662971,429,-0.3305934065934066,1.609846153846154,-126.86162637362638,-89.89312977099236,-60.58015267175573,0.007633587786259542,-205.41284403669727,242.75229357798165,-116.69724770642202,0.0
1760130053.6842465,430,-0.44558241758241757,1.5810989010989014,-134.1203076923077,-80.12213740458016,-72.30534351145039,0.007633587786259542,-146.69724770642202,266.23853211009174,-140.1834862385321,0.0
1760130053.6949916,431,-0.4527692307692308,1.688901098901099,-126.78975824175825,-84.03053435114504,-76.21374045801527,0.007633587786259542,-87.98165137614679,219.26605504587155,-140.1834862385321,0.0
1760130053.7162845,432,-0.5174505494505495,1.8038901098901101,-128.70145054945056,-80.12213740458016,-60.58015267175573,0.007633587786259542,-29.266055045871557,266.23853211009174,-116.69724770642202,0.0
1760130053.7479303,433,-0.459956043956044,1.6673406593406594,-121.27747252747254,-87.93893129770993,-76.21374045801527,0.007633587786259542,29.44954128440367,289.8165137614679,-116.69724770642202,0.0
1760130053.7587028,434,-0.5318241758241758,1.8038901098901101,-128.5720879120879,-91.8473282442748,-70.35114503816794,0.007633587786259542,88.1651376146789,266.33027522935777,-93.21100917431193,0.0
1760130053.7800355,435,1.2792527472527473,0.0071868131868131875,-130.42628571428574,-84.03053435114504,-62.534351145038165,0.007633587786259542,146.88073394495413,266.33027522935777,-93.21100917431193,0.0
1760130053.7908783,436,-0.44558241758241757,1.6529670329670332,-126.82569230769232,-76.21374045801527,-76.21374045801527,0.007633587786259542,205.59633027522938,266.33027522935777,-163.6697247706422,0.0
1760130053.8122082,437,-0.5677582417582419,1.7320219780219783,-132.14393406593408,-78.16793893129771,-70.35114503816794,0.007633587786259542,264.3119266055046,313.30275229357795,-116.69724770642202,0.0
1760130053.8439593,438,-0.539010989010989,1.6314065934065933,-121.24872527472529,-72.30534351145039,-64.4885496183206,0.007633587786259542,323.0275229357798,289.8165137614679,-93.21100917431193,0.0
1760130053.854704,439,-0.41683516483516486,1.6601538461538463,-130.50534065934067,-80.12213740458016,-60.58015267175573,0.007633587786259542,381.7431192660551,242.8440366972477,-163.6697247706422,0.0
1760130053.876014,440,-0.5174505494505495,1.767956043956044,-135.88107692307693,-80.12213740458016,-68.3969465648855,0.007633587786259542,440.4587155963303,289.8165137614679,-140.1834862385321,0.0
1760130053.8868089,441,-0.4743296703296704,1.7463956043956046,-137.7783956043956,-91.8473282442748,-62.534351145038165,0.007633587786259542,499.1743119266055,219.3577981651376,-140.1834862385321,0.0
1760130053.9186244,442,-0.44558241758241757,1.688901098901099,-117.54751648351649,-70.35114503816794,-64.4885496183206,0.007633587786259542,557.8899082568807,313.30275229357795,-69.72477064220183,0.0
1760130053.9293375,443,-0.3880879120879121,1.6673406593406594,-141.4221098901099,-80.12213740458016,-68.3969465648855,0.007633587786259542,616.605504587156,289.8165137614679,-140.1834862385321,0.0
1760130053.950596,444,-0.5318241758241758,1.6457802197802198,-124.82775824175825,-80.12213740458016,-78.16793893129771,0.007633587786259542,675.3211009174312,219.3577981651376,-116.69724770642202,0.0
1760130053.9612713,445,-0.574945054945055,1.7967032967032968,-132.28767032967033,-84.03053435114504,-64.4885496183206,0.007633587786259542,734.0366972477065,219.3577981651376,-116.69724770642202,0.0
1760130053.982562,446,-0.539010989010989,1.7751428571428571,-124.84931868131868,-78.16793893129771,-74.25954198473282,0.007633587786259542,792.7522935779817,242.8440366972477,-140.1834862385321,0.0
1760130054.0142438,447,-0.5102637362637363,1.7104615384615385,-134.1706153846154,-78.16793893129771,-66.44274809160305,0.007633587786259542,851.4678899082569,242.8440366972477,-163.6697247706422,0.0
1760130054.0459676,448,-0.4958901098901099,1.724835164835165,-134.0771868131868,-72.30534351145039,-66.44274809160305,0.007633587786259542,910.183486238532,266.33027522935777,-140.1834862385321,0.0
1760130054.0566974,449,-0.5246373626373626,1.7320219780219783,-123.09573626373627,-87.93893129770993,-64.4885496183206,0.007633587786259542,968.8990825688073,242.8440366972477,-116.69724770642202,0.0
1760130054.077796,450,-0.3880879120879121,1.6673406593406594,-126.8185054945055,-85.98473282442748,-58.62595419847328,0.007633587786259542,1027.6146788990825,289.8165137614679,-93.21100917431193,0.0
1760130054.0884595,451,-0.459956043956044,1.7751428571428571,-121.27747252747254,-80.12213740458016,-72.30534351145039,0.007633587786259542,1086.3302752293578,242.8440366972477,-93.21100917431193,0.0
1760130054.1097019,452,-0.5677582417582419,1.724835164835165,-126.78257142857144,-91.8473282442748,-68.3969465648855,0.007633587786259542,1145.045871559633,266.33027522935777,-116.69724770642202,0.0
1760130054.1204004,453,-0.4958901098901099,1.5523516483516484,-113.88224175824176,-87.93893129770993,-72.30534351145039,0.007633587786259542,1203.7614678899083,289.8165137614679,-163.6697247706422,0.0
1760130054.1417847,454,-0.46714285714285714,1.688901098901099,-132.33079120879123,-82.07633587786259,-66.44274809160305,0.007633587786259542,1262.4770642201834,266.33027522935777,-140.1834862385321,0.0
1760130054.1736057,455,-0.39527472527472535,1.767956043956044,-119.42327472527472,-87.93893129770993,-60.58015267175573,0.007633587786259542,1321.1926605504586,242.8440366972477,-140.1834862385321,0.0
1760130054.1842308,456,-0.3593406593406594,1.7751428571428571,-126.74663736263737,-91.8473282442748,-56.67175572519084,0.007633587786259542,1379.908256880734,266.33027522935777,-140.1834862385321,0.0
1760130054.2053697,457,-0.41683516483516486,1.5954725274725277,-132.30204395604397,-87.93893129770993,-56.67175572519084,0.007633587786259542,1438.6238532110092,266.33027522935777,-140.1834862385321,0.0
1760130054.2371695,458,-0.6827472527472528,1.6242197802197802,-122.98074725274726,-80.12213740458016,-70.35114503816794,0.007633587786259542,1497.3394495412845,266.33027522935777,-140.1834862385321,0.0
1760130054.247779,459,-0.5893186813186814,1.6960879120879122,-125.02898901098901,-78.16793893129771,-68.3969465648855,0.007633587786259542,1556.0550458715597,289.8165137614679,-116.69724770642202,0.0
1760130054.268903,460,-0.3880879120879121,1.724835164835165,-132.2804835164835,-85.98473282442748,-60.58015267175573,0.007633587786259542,1614.7706422018348,266.33027522935777,-116.69724770642202,0.0
1760130054.3006845,461,-0.5030769230769231,1.6817142857142857,-113.95410989010989,-89.89312977099236,-68.3969465648855,0.007633587786259542,1673.48623853211,266.33027522935777,-116.69724770642202,0.0
1760130054.3113747,462,-0.44558241758241757,1.6673406593406594,-115.80830769230771,-74.25954198473282,-72.30534351145039,0.007633587786259542,1732.2018348623853,289.8165137614679,-93.21100917431193,0.0
1760130054.3326113,463,-0.43839560439560443,1.767956043956044,-145.1808131868132,-82.07633587786259,-80.12213740458016,0.007633587786259542,1790.9174311926606,242.8440366972477,-187.1559633027523,0.0
1760130054.343305,464,-0.46714285714285714,1.5667252747252747,-139.66134065934065,-80.12213740458016,-76.21374045801527,0.007633587786259542,1849.633027522936,266.33027522935777,-93.21100917431193,0.0
1760130054.3646524,465,-0.4527692307692308,1.7392087912087915,-124.8565054945055,-82.07633587786259,-66.44274809160305,0.007633587786259542,1908.348623853211,266.33027522935777,-116.69724770642202,0.0
1760130054.3858802,466,-0.3880879120879121,1.609846153846154,-126.86162637362638,-85.98473282442748,-68.3969465648855,0.007633587786259542,1967.0642201834862,289.8165137614679,-140.1834862385321,0.0
1760130054.3966258,467,-0.3880879120879121,1.609846153846154,-134.07,-82.07633587786259,-62.534351145038165,0.007633587786259542,2025.7798165137615,266.33027522935777,-116.69724770642202,0.0
1760130054.4177582,468,-0.5461978021978022,1.6529670329670332,-130.47659340659342,-82.07633587786259,-72.30534351145039,0.007633587786259542,2084.4954128440368,242.8440366972477,-163.6697247706422,0.0
1760130054.4489694,469,-0.46714285714285714,1.7751428571428571,-128.5577142857143,-80.12213740458016,-68.3969465648855,0.007633587786259542,2143.211009174312,289.8165137614679,-163.6697247706422,0.0
1760130054.4595854,470,-0.43839560439560443,1.7032747252747253,-136.03918681318683,-82.07633587786259,-70.35114503816794,0.007633587786259542,2201.9266055045873,219.3577981651376,-116.69724770642202,0.0
1760130054.480757,471,-0.539010989010989,1.6529670329670332,-117.54032967032968,-82.07633587786259,-70.35114503816794,0.007633587786259542,2260.6422018348626,195.87155963302752,-93.21100917431193,0.0
1760130054.4912956,472,-0.4743296703296704,1.7463956043956046,-128.65832967032966,-70.35114503816794,-70.35114503816794,0.007633587786259542,2319.357798165138,266.33027522935777,-93.21100917431193,0.0
1760130054.522172,473,-0.4815164835164835,1.7607692307692309,-128.68707692307692,-89.89312977099236,-60.58015267175573,0.007633587786259542,2378.0733944954127,219.3577981651376,-140.1834862385321,0.0
1760130054.5530214,474,-0.5461978021978022,1.688901098901099,-124.92837362637363,-87.93893129770993,-68.3969465648855,0.007633587786259542,2436.788990825688,266.33027522935777,-93.21100917431193,0.0
1760130054.5635734,475,1.3511208791208793,0.0071868131868131875,-132.222989010989,-78.16793893129771,-70.35114503816794,0.007633587786259542,2495.5045871559632,266.33027522935777,-116.69724770642202,0.0
1760130054.5843923,476,-0.48870329670329676,1.6673406593406594,-104.71905494505495,-80.12213740458016,-68.3969465648855,0.007633587786259542,2554.2201834862385,289.8165137614679,-116.69724770642202,0.0
1760130054.5948482,477,-0.4527692307692308,1.688901098901099,-133.96938461538463,-70.35114503816794,-66.44274809160305,0.007633587786259542,2612.935779816514,266.33027522935777,-140.1834862385321,0.0
1760130054.615694,478,-0.5174505494505495,1.5954725274725277,-123.07417582417582,-85.98473282442748,-64.4885496183206,0.007633587786259542,2671.651376146789,242.8440366972477,-163.6697247706422,0.0
1760130054.6474278,479,-0.4958901098901099,1.609846153846154,-119.4592087912088,-85.98473282442748,-68.3969465648855,0.007633587786259542,2730.3669724770643,266.33027522935777,-116.69724770642202,0.0
1760130054.6790926,480,-0.4527692307692308,1.617032967032967,-121.24872527472529,-72.30534351145039,-66.44274809160305,0.007633587786259542,2789.0825688073396,266.33027522935777,-93.21100917431193,0.0
1760130054.6897774,481,-0.44558241758241757,1.6529670329670332,-143.3266153846154,-85.98473282442748,-74.25954198473282,0.007633587786259542,2847.798165137615,242.8440366972477,-187.1559633027523,0.0
1760130054.7109923,482,-0.3593406593406594,1.6673406593406594,-139.63978021978022,-85.98473282442748,-78.16793893129771,0.007633587786259542,2906.51376146789,242.8440366972477,-140.1834862385321,0.0
1760130054.7217247,483,-0.35215384615384615,1.7392087912087915,-121.17685714285716,-87.93893129770993,-66.44274809160305,0.007633587786259542,2965.2293577981654,242.8440366972477,-93.21100917431193,0.0
1760130054.7429974,484,-0.459956043956044,1.6242197802197802,-130.50534065934067,-91.8473282442748,-68.3969465648855,0.007633587786259542,-2988.532110091743,266.33027522935777,-116.69724770642202,0.0
1760130054.753717,485,-0.3737142857142858,1.6242197802197802,-150.63560439560442,-91.8473282442748,-70.35114503816794,0.007633587786259542,-2929.816513761468,242.8440366972477,-140.1834862385321,0.0
1760130054.7750337,486,-0.4958901098901099,1.5667252747252747,-141.48679120879123,-85.98473282442748,-70.35114503816794,0.007633587786259542,-2871.1009174311926,289.8165137614679,-116.69724770642202,0.0
1760130054.8065846,487,-0.39527472527472535,1.6529670329670332,-121.26309890109891,-68.3969465648855,-60.58015267175573,0.007633587786259542,-2812.3853211009173,242.8440366972477,-140.1834862385321,0.0
1760130054.8173015,488,-0.5677582417582419,1.7967032967032968,-134.1706153846154,-85.98473282442748,-68.3969465648855,0.007633587786259542,-2753.669724770642,266.33027522935777,-69.72477064220183,0.0
1760130054.8385808,489,-0.48870329670329676,1.724835164835165,-124.95712087912088,-89.89312977099236,-62.534351145038165,0.007633587786259542,-2694.9541284403667,313.30275229357795,-140.1834862385321,0.0
1760130054.8491879,490,-0.5461978021978022,1.6026593406593408,-139.6182197802198,-91.8473282442748,-66.44274809160305,0.007633587786259542,-2636.2385321100915,242.8440366972477,-93.21100917431193,0.0
1760130054.8704104,491,-0.2946593406593407,1.7032747252747253,-137.81432967032967,-91.8473282442748,-60.58015267175573,0.007633587786259542,-2577.522935779816,266.33027522935777,-93.21100917431193,0.0
1760130054.902267,492,-0.4958901098901099,1.6960879120879122,-130.44784615384617,-82.07633587786259,-74.25954198473282,0.007633587786259542,-2518.8073394495414,313.30275229357795,-93.21100917431193,0.0
1760130054.9129934,493,-0.5461978021978022,1.5954725274725277,-141.48679120879123,-95.7557251908397,-74.25954198473282,0.007633587786259542,-2460.091743119266,266.33027522935777,-140.1834862385321,0.0
1760130054.9343202,494,-0.5318241758241758,1.617032967032967,-126.84006593406595,-76.21374045801527,-72.30534351145039,0.007633587786259542,-2401.376146788991,266.33027522935777,-116.69724770642202,0.0
1760130054.9450545,495,-0.39527472527472535,1.6673406593406594,-130.49815384615385,-93.80152671755725,-62.534351145038165,0.007633587786259542,-2342.6605504587155,289.8165137614679,-93.21100917431193,0.0
1760130054.9663088,496,-0.5030769230769231,1.7104615384615385,-124.914,-85.98473282442748,-56.67175572519084,0.007633587786259542,-2283.9449541284403,242.8440366972477,-69.72477064220183,0.0
1760130054.9981449,497,-0.44558241758241757,1.688901098901099,-132.3236043956044,-78.16793893129771,-60.58015267175573,0.007633587786259542,-2225.229357798165,242.8440366972477,-116.69724770642202,0.0
1760130055.0088446,498,1.3511208791208793,0.0071868131868131875,-134.09156043956045,-76.21374045801527,-72.30534351145039,0.007633587786259542,-2166.5137614678897,242.8440366972477,-116.69724770642202,0.0
1760130055.0302293,499,-0.5461978021978022,1.8254505494505495,-132.2804835164835,-84.03053435114504,-60.58015267175573,0.007633587786259542,-2107.7981651376144,219.3577981651376,-116.69724770642202,0.0
1760130055.051625,500,-0.539010989010989,1.7751428571428571,-126.76819780219782,-74.25954198473282,-64.4885496183206,0.007633587786259542,-2049.082568807339,266.33027522935777,-116.69724770642202,0.0
1760130055.0623043,501,-0.43120879120879124,1.609846153846154,-121.24872527472529,-82.07633587786259,-72.30534351145039,0.007633587786259542,-1990.366972477064,242.8440366972477,-140.1834862385321,0.0
1760130055.0834641,502,-0.4096483516483516,1.7607692307692309,-130.47659340659342,-82.07633587786259,-62.534351145038165,0.007633587786259542,-1931.6513761467888,289.8165137614679,-116.69724770642202,0.0
1760130055.094212,503,-0.459956043956044,1.609846153846154,-143.39129670329672,-78.16793893129771,-70.35114503816794,0.007633587786259542,-1872.9357798165136,313.30275229357795,-116.69724770642202,0.0
1760130055.1260037,504,-0.459956043956044,1.6026593406593408,-132.33797802197802,-82.07633587786259,-70.35114503816794,0.007633587786259542,-1814.2201834862383,266.33027522935777,-163.6697247706422,0.0
1760130055.1472116,505,-0.42402197802197805,1.6601538461538463,-132.28767032967033,-87.93893129770993,-58.62595419847328,0.007633587786259542,-1755.5045871559632,266.33027522935777,-116.69724770642202,0.0
1760130055.1580489,506,-0.4743296703296704,1.7320219780219783,-134.20654945054946,-82.07633587786259,-68.3969465648855,0.007633587786259542,-1696.788990825688,289.8165137614679,-116.69724770642202,0.0
1760130055.1791923,507,-0.5246373626373626,1.6457802197802198,-130.3975384615385,-80.12213740458016,-56.67175572519084,0.007633587786259542,-1638.0733944954127,242.8440366972477,-140.1834862385321,0.0
1760130055.2108617,508,-0.4024615384615385,1.724835164835165,-139.65415384615383,-66.44274809160305,-66.44274809160305,0.007633587786259542,-1579.3577981651376,266.33027522935777,-93.21100917431193,0.0
1760130055.2216792,509,-0.46714285714285714,1.6745274725274726,-132.33079120879123,-76.21374045801527,-66.44274809160305,0.007633587786259542,-1520.6422018348624,289.8165137614679,-93.21100917431193,0.0
1760130055.2429063,510,-0.5965054945054945,1.6601538461538463,-121.32059340659342,-95.7557251908397,-74.25954198473282,0.007633587786259542,-1461.926605504587,266.33027522935777,-93.21100917431193,0.0
1760130055.2536514,511,-0.5102637362637363,1.6673406593406594,-126.72507692307693,-87.93893129770993,-68.3969465648855,0.007633587786259542,-1403.2110091743118,289.8165137614679,-116.69724770642202,0.0
1760130055.2748024,512,-0.5893186813186814,1.6242197802197802,-119.41608791208792,-85.98473282442748,-68.3969465648855,0.007633587786259542,-1344.4954128440368,289.8165137614679,-116.69724770642202,0.0
1760130055.306586,513,-0.4527692307692308,1.6673406593406594,-130.570021978022,-84.03053435114504,-74.25954198473282,0.007633587786259542,-1285.7798165137615,242.8440366972477,-116.69724770642202,0.0
1760130055.3190498,514,-0.4527692307692308,1.6242197802197802,-137.70652747252748,-80.12213740458016,-68.3969465648855,0.007633587786259542,-1227.0642201834862,266.33027522935777,-93.21100917431193,0.0
1760130055.3403184,515,-0.4024615384615385,1.767956043956044,-128.57927472527473,-93.80152671755725,-60.58015267175573,0.007633587786259542,-1168.348623853211,266.33027522935777,-116.69724770642202,0.0
1760130055.3719523,516,-0.4815164835164835,1.6745274725274726,-126.78975824175825,-87.93893129770993,-64.4885496183206,0.007633587786259542,-1109.6330275229357,266.33027522935777,-93.21100917431193,0.0
1760130055.382692,517,-0.5533846153846155,1.7320219780219783,-132.30923076923077,-84.03053435114504,-68.3969465648855,0.007633587786259542,-1050.9174311926606,242.8440366972477,-116.69724770642202,0.0
1760130055.403786,518,-0.4815164835164835,1.6457802197802198,-128.65114285714287,-82.07633587786259,-62.534351145038165,0.007633587786259542,-992.2018348623853,266.33027522935777,-116.69724770642202,0.0
1760130055.414546,519,-0.6324395604395605,1.7751428571428571,-124.95712087912088,-91.8473282442748,-70.35114503816794,0.007633587786259542,-933.4862385321101,289.8165137614679,-140.1834862385321,0.0
1760130055.435832,520,-0.5102637362637363,1.767956043956044,-128.6152087912088,-87.93893129770993,-56.67175572519084,0.007633587786259542,-874.7706422018348,266.33027522935777,-116.69724770642202,0.0
1760130055.467679,521,-0.4527692307692308,1.7104615384615385,-124.88525274725275,-68.3969465648855,-68.3969465648855,0.007633587786259542,-816.0550458715596,266.33027522935777,-116.69724770642202,0.0
1760130055.4783823,522,-0.5318241758241758,1.7320219780219783,-125.00024175824176,-89.89312977099236,-60.58015267175573,0.007633587786259542,-757.3394495412844,289.8165137614679,-116.69724770642202,0.0
1760130055.49974,523,-0.4096483516483516,1.767956043956044,-124.92837362637363,-82.07633587786259,-72.30534351145039,0.007633587786259542,-698.6238532110092,266.33027522935777,-116.69724770642202,0.0
1760130055.531583,524,-0.3737142857142858,1.7176483516483516,-126.7035164835165,-80.12213740458016,-68.3969465648855,0.007633587786259542,-639.908256880734,266.33027522935777,-116.69724770642202,0.0
1760130055.5422907,525,-0.48870329670329676,1.7032747252747253,-123.09573626373627,-78.16793893129771,-74.25954198473282,0.007633587786259542,-581.1926605504588,313.30275229357795,-93.21100917431193,0.0
1760130055.5636578,526,-0.4527692307692308,1.6529670329670332,-128.60802197802198,-82.07633587786259,-66.44274809160305,0.007633587786259542,-522.4770642201835,266.33027522935777,-163.6697247706422,0.0
1760130055.5744119,527,-0.4743296703296704,1.5954725274725277,-123.17479120879122,-78.16793893129771,-60.58015267175573,0.007633587786259542,-463.76146788990826,266.33027522935777,-93.21100917431193,0.0
1760130055.5851495,528,-0.3809010989010989,1.688901098901099,-124.89962637362638,-76.21374045801527,-68.3969465648855,0.007633587786259542,-405.04587155963304,289.8165137614679,-93.21100917431193,0.0
1760130055.6168838,529,-0.35215384615384615,1.5882857142857145,-135.94575824175826,-76.21374045801527,-58.62595419847328,0.007633587786259542,-346.3302752293578,289.8165137614679,-163.6697247706422,0.0
1760130055.6276245,530,-0.5174505494505495,1.688901098901099,-128.6295824175824,-85.98473282442748,-60.58015267175573,0.007633587786259542,-287.6146788990826,266.33027522935777,-93.21100917431193,0.0
1760130055.6488152,531,-0.41683516483516486,1.6242197802197802,-130.5269010989011,-82.07633587786259,-62.534351145038165,0.007633587786259542,-228.89908256880736,195.87155963302752,-140.1834862385321,0.0
1760130055.680601,532,-0.44558241758241757,1.6457802197802198,-135.98169230769233,-80.12213740458016,-62.534351145038165,0.007633587786259542,-170.1834862385321,242.8440366972477,-116.69724770642202,0.0
1760130055.6913688,533,-0.5533846153846155,1.5810989010989014,-128.6152087912088,-91.8473282442748,-70.35114503816794,0.007633587786259542,-111.4678899082569,289.8165137614679,-116.69724770642202,0.0
1760130055.7127337,534,-0.4815164835164835,1.5307912087912088,-128.68707692307692,-84.03053435114504,-76.21374045801527,0.007633587786259542,-52.752293577981646,242.8440366972477,-116.69724770642202,0.0
1760130055.7445953,535,-0.459956043956044,1.7607692307692309,-137.8358901098901,-93.80152671755725,-68.3969465648855,0.007633587786259542,5.963302752293578,242.93577981651376,-140.1834862385321,0.0
1760130055.7552023,536,-0.43839560439560443,1.6529670329670332,-128.75894505494506,-89.89312977099236,-68.3969465648855,0.007633587786259542,64.6788990825688,266.42201834862385,-140.1834862385321,0.0
1760130055.7764237,537,-0.5677582417582419,1.724835164835165,-130.38316483516485,-78.16793893129771,-85.98473282442748,0.007633587786259542,123.39449541284404,266.42201834862385,-116.69724770642202,0.0
1760130055.7871797,538,-0.5030769230769231,1.6601538461538463,-130.53408791208793,-80.12213740458016,-62.534351145038165,0.007633587786259542,182.11009174311928,266.42201834862385,-116.69724770642202,0.0
1760130055.8085809,539,-0.4958901098901099,1.767956043956044,-123.00949450549452,-72.30534351145039,-68.3969465648855,0.007633587786259542,240.8256880733945,242.93577981651376,-116.69724770642202,0.0
1760130055.8403492,540,-0.4815164835164835,1.688901098901099,-132.34516483516484,-66.44274809160305,-54.717557251908396,0.007633587786259542,299.54128440366975,266.42201834862385,-163.6697247706422,0.0
1760130055.8510373,541,-0.48870329670329676,1.8110769230769233,-130.43347252747253,-91.8473282442748,-60.58015267175573,0.007633587786259542,358.25688073394497,266.42201834862385,-46.23853211009175,0.0
1760130055.8724363,542,-0.43120879120879124,1.6242197802197802,-135.93857142857144,-82.07633587786259,-74.25954198473282,0.007633587786259542,416.9724770642202,266.42201834862385,-116.69724770642202,0.0
1760130055.9042218,543,-0.35215384615384615,1.6960879120879122,-132.30923076923077,-82.07633587786259,-76.21374045801527,0.007633587786259542,475.68807339449546,266.42201834862385,-116.69724770642202,0.0
1760130055.9150019,544,-0.43120879120879124,1.6673406593406594,-128.60802197802198,-87.93893129770993,-68.3969465648855,0.007633587786259542,534.4036697247707,242.93577981651376,-140.1834862385321,0.0
1760130055.9258327,545,-0.4743296703296704,1.7320219780219783,-130.43347252747253,-87.93893129770993,-66.44274809160305,0.007633587786259542,593.119266055046,266.42201834862385,-116.69724770642202,0.0
1760130055.9366765,546,-0.4096483516483516,1.6960879120879122,-130.4694065934066,-80.12213740458016,-56.67175572519084,0.007633587786259542,651.8348623853211,266.42201834862385,-163.6697247706422,0.0
1760130055.9580472,547,1.4086153846153846,0.07186813186813187,-117.53314285714286,-82.07633587786259,-74.25954198473282,0.007633587786259542,710.5504587155964,266.42201834862385,-116.69724770642202,0.0
1760130055.9899192,548,-0.48870329670329676,1.7032747252747253,-139.56791208791208,-74.25954198473282,-64.4885496183206,0.007633587786259542,769.2660550458716,219.44954128440367,-93.21100917431193,0.0
1760130056.0006895,549,-0.3880879120879121,1.6314065934065933,-128.62239560439562,-91.8473282442748,-80.12213740458016,0.007633587786259542,827.9816513761467,289.9082568807339,-93.21100917431193,0.0
1760130056.0219564,550,-0.5821318681318681,1.688901098901099,-123.0526153846154,-80.12213740458016,-62.534351145038165,0.007633587786259542,886.697247706422,266.42201834862385,-116.69724770642202,0.0
1760130056.0538793,551,-0.459956043956044,1.617032967032967,-134.08437362637363,-76.21374045801527,-68.3969465648855,0.007633587786259542,945.4128440366972,242.93577981651376,-93.21100917431193,0.0
1760130056.0646513,552,-0.4958901098901099,1.6026593406593408,-141.62334065934067,-80.12213740458016,-70.35114503816794,0.007633587786259542,1004.1284403669724,266.42201834862385,-163.6697247706422,0.0
1760130056.085938,553,-0.4958901098901099,1.7032747252747253,-128.63676923076923,-84.03053435114504,-64.4885496183206,0.007633587786259542,1062.8440366972477,289.9082568807339,-116.69724770642202,0.0
1760130056.0967143,554,-0.5605714285714286,1.617032967032967,-128.65114285714287,-89.89312977099236,-64.4885496183206,0.007633587786259542,1121.559633027523,219.44954128440367,-116.69724770642202,0.0
1760130056.1180751,555,-0.5605714285714286,1.609846153846154,-126.75382417582418,-80.12213740458016,-68.3969465648855,0.007633587786259542,1180.2752293577983,242.93577981651376,-93.21100917431193,0.0
1760130056.1498165,556,-0.43839560439560443,1.7535824175824177,-128.59364835164834,-84.03053435114504,-54.717557251908396,0.007633587786259542,1238.9908256880733,242.93577981651376,-140.1834862385321,0.0
1760130056.1605844,557,-0.48870329670329676,1.6673406593406594,-119.43046153846154,-84.03053435114504,-60.58015267175573,0.007633587786259542,1297.7064220183486,266.42201834862385,-163.6697247706422,0.0
1760130056.181872,558,-0.5821318681318681,1.688901098901099,-141.54428571428573,-89.89312977099236,-70.35114503816794,0.007633587786259542,1356.4220183486239,242.93577981651376,-140.1834862385321,0.0
1760130056.2137837,559,-0.5677582417582419,1.7104615384615385,-124.88525274725275,-76.21374045801527,-64.4885496183206,0.007633587786259542,1415.1376146788991,266.42201834862385,-140.1834862385321,0.0
1760130056.2245786,560,1.300813186813187,0.0,-126.67476923076924,-82.07633587786259,-70.35114503816794,0.007633587786259542,1473.8532110091744,219.44954128440367,-116.69724770642202,0.0
1760130056.2457964,561,1.4373626373626376,0.03593406593406594,-115.79393406593408,-89.89312977099236,-74.25954198473282,0.007633587786259542,1532.5688073394494,219.44954128440367,-140.1834862385321,0.0
1760130056.256623,562,-0.34496703296703296,1.688901098901099,-132.27329670329672,-70.35114503816794,-62.534351145038165,0.007633587786259542,1591.2844036697247,242.93577981651376,-116.69724770642202,0.0
1760130056.2674198,563,-0.6180659340659341,1.6601538461538463,-130.4119120879121,-85.98473282442748,-58.62595419847328,0.007633587786259542,1650.0,219.44954128440367,-116.69724770642202,0.0
1760130056.2991135,564,-0.5893186813186814,1.6745274725274726,-128.65832967032966,-93.80152671755725,-60.58015267175573,0.007633587786259542,1708.7155963302753,266.42201834862385,-140.1834862385321,0.0
1760130056.3097885,565,-0.459956043956044,1.8038901098901101,-123.15323076923077,-85.98473282442748,-74.25954198473282,0.007633587786259542,1767.4311926605506,266.42201834862385,-93.21100917431193,0.0
1760130056.3310428,566,-0.48870329670329676,1.5020439560439562,-126.72507692307693,-80.12213740458016,-62.534351145038165,0.007633587786259542,1826.1467889908256,266.42201834862385,-93.21100917431193,0.0
1760130056.3628213,567,-0.3737142857142858,1.5954725274725277,-121.29903296703297,-70.35114503816794,-60.58015267175573,0.007633587786259542,1884.8623853211009,266.42201834862385,-116.69724770642202,0.0
1760130056.3946052,568,-0.4024615384615385,1.6529670329670332,-128.60802197802198,-85.98473282442748,-56.67175572519084,0.007633587786259542,1943.5779816513761,266.42201834862385,-140.1834862385321,0.0
1760130056.4053705,569,-0.6036923076923078,1.6960879120879122,-130.36160439560442,-78.16793893129771,-72.30534351145039,0.007633587786259542,2002.2935779816514,266.42201834862385,-93.21100917431193,0.0
1760130056.4159625,570,-0.5677582417582419,1.7751428571428571,-119.36578021978022,-78.16793893129771,-76.21374045801527,0.007633587786259542,2061.0091743119265,266.42201834862385,-163.6697247706422,0.0
1760130056.4265878,571,-0.5605714285714286,1.767956043956044,-130.5269010989011,-91.8473282442748,-60.58015267175573,0.007633587786259542,2119.7247706422017,242.93577981651376,-163.6697247706422,0.0
1760130056.458072,572,-0.5030769230769231,1.688901098901099,-124.89243956043956,-82.07633587786259,-60.58015267175573,0.007633587786259542,2178.440366972477,242.93577981651376,-116.69724770642202,0.0
1760130056.4688532,573,-0.3377802197802198,1.6673406593406594,-123.02386813186814,-76.21374045801527,-70.35114503816794,0.007633587786259542,2237.1559633027523,266.42201834862385,-116.69724770642202,0.0
1760130056.4899359,574,-0.41683516483516486,1.6026593406593408,-125.00742857142856,-91.8473282442748,-60.58015267175573,0.007633587786259542,2295.8715596330276,242.93577981651376,-116.69724770642202,0.0
1760130056.521695,575,-0.5318241758241758,1.7176483516483516,-121.33496703296704,-68.3969465648855,-64.4885496183206,0.007633587786259542,2354.587155963303,266.42201834862385,-140.1834862385321,0.0
1760130056.5324576,576,-0.539010989010989,1.6601538461538463,-130.42628571428574,-82.07633587786259,-70.35114503816794,0.007633587786259542,2413.302752293578,266.42201834862385,-93.21100917431193,0.0
1760130056.5537984,577,-0.4024615384615385,1.7176483516483516,-121.26309890109891,-95.7557251908397,-74.25954198473282,0.007633587786259542,2472.0183486238534,242.93577981651376,-93.21100917431193,0.0
1760130056.5645397,578,-0.5821318681318681,1.7535824175824177,-134.11312087912088,-87.93893129770993,-54.717557251908396,0.007633587786259542,2530.7339449541287,242.93577981651376,-93.21100917431193,0.0
1760130056.5859199,579,-0.3593406593406594,1.7535824175824177,-117.59782417582419,-85.98473282442748,-58.62595419847328,0.007633587786259542,2589.4495412844035,195.9633027522936,-116.69724770642202,0.0
1760130056.6172695,580,-0.6036923076923078,1.609846153846154,-136.06074725274726,-87.93893129770993,-70.35114503816794,0.007633587786259542,2648.1651376146788,266.42201834862385,-93.21100917431193,0.0
1760130056.6279795,581,-0.5821318681318681,1.7032747252747253,-124.82775824175825,-74.25954198473282,-66.44274809160305,0.007633587786259542,2706.880733944954,266.42201834862385,-116.69724770642202,0.0
1760130056.6492727,582,-0.43839560439560443,1.7895164835164834,-134.0771868131868,-91.8473282442748,-62.534351145038165,0.007633587786259542,2765.5963302752293,289.9082568807339,-140.1834862385321,0.0
1760130056.6600716,583,-0.4527692307692308,1.7967032967032968,-136.0894945054945,-74.25954198473282,-68.3969465648855,0.007633587786259542,2824.3119266055046,266.42201834862385,-140.1834862385321,0.0
1760130056.6918232,584,-0.5174505494505495,1.7176483516483516,-123.10292307692308,-89.89312977099236,-62.534351145038165,0.007633587786259542,2883.02752293578,266.42201834862385,-140.1834862385321,0.0
1760130056.713083,585,-0.46714285714285714,1.688901098901099,-124.95712087912088,-84.03053435114504,-68.3969465648855,0.007633587786259542,2941.743119266055,242.93577981651376,-93.21100917431193,0.0
1760130056.7238724,586,-0.6683736263736263,1.7392087912087915,-113.91817582417583,-78.16793893129771,-58.62595419847328,0.007633587786259542,3000.4587155963304,242.93577981651376,-140.1834862385321,0.0
1760130056.7451258,587,-0.4527692307692308,1.6960879120879122,-126.76819780219782,-82.07633587786259,-58.62595419847328,0.007633587786259542,-2953.3027522935777,289.9082568807339,-140.1834862385321,0.0
1760130056.7558029,588,-0.4096483516483516,1.7032747252747253,-143.31224175824175,-74.25954198473282,-68.3969465648855,0.007633587786259542,-2894.587155963303,266.42201834862385,-69.72477064220183,0.0
1760130056.7769525,589,-0.43120879120879124,1.7176483516483516,-126.78975824175825,-87.93893129770993,-58.62595419847328,0.007633587786259542,-2835.8715596330276,242.93577981651376,-163.6697247706422,0.0
1760130056.808773,590,-0.48870329670329676,1.5307912087912088,-119.55982417582418,-78.16793893129771,-70.35114503816794,0.007633587786259542,-2777.1559633027523,289.9082568807339,-140.1834862385321,0.0
1760130056.8193908,591,-0.5318241758241758,1.6601538461538463,-128.60083516483516,-85.98473282442748,-66.44274809160305,0.007633587786259542,-2718.440366972477,242.93577981651376,-93.21100917431193,0.0
1760130056.8407125,592,1.3439340659340662,0.0,-132.41703296703298,-84.03053435114504,-68.3969465648855,0.007633587786259542,-2659.7247706422017,266.42201834862385,-116.69724770642202,0.0
1760130056.8724265,593,-0.5605714285714286,1.6529670329670332,-130.41909890109892,-84.03053435114504,-72.30534351145039,0.007633587786259542,-2601.0091743119265,266.42201834862385,-69.72477064220183,0.0
