timestamp,packet_id,accel_x,accel_y,accel_z,gyro_x,gyro_y,gyro_z,mag_x,mag_y,mag_z,battery,temperature
1760476518.8608465,0,0.20074462890625,0.1248779296875,0.1253662109375,9.396946564885496,-158.29007633587787,-48.86259541984733,868.9908256880734,-34.22018348623853,-9.44954128440367,,
1760476518.8930202,0,0.200927734375,0.1248779296875,0.12554931640625,9.427480916030534,-168.06106870229007,-31.27480916030534,681.1009174311927,-33.57798165137615,-9.26605504587156,,
1760476518.9035645,0,0.2010498046875,0.1248779296875,0.12548828125,9.419847328244275,-125.06870229007633,-21.50381679389313,751.559633027523,-33.57798165137615,-9.174311926605505,,
1760476518.9245532,0,0.20123291015625,0.12481689453125,0.12548828125,9.412213740458014,-150.4732824427481,1.9541984732824427,892.4770642201836,-33.11926605504587,-10.0,,
1760476518.935415,0,0.20135498046875,0.12493896484375,0.12554931640625,9.427480916030534,-146.5648854961832,-43.0,962.9357798165138,-33.02752293577982,-9.44954128440367,,
1760476518.9568725,0,0.2015380859375,0.1248779296875,0.12542724609375,9.419847328244275,-127.02290076335878,-7.824427480916031,563.6697247706422,-33.211009174311926,-9.44954128440367,,
1760476518.9884028,0,0.20166015625,0.1248779296875,0.12542724609375,9.427480916030534,-148.51908396946564,-23.458015267175572,822.0183486238533,-34.22018348623853,-9.357798165137615,,
1760476518.9990737,0,0.20184326171875,0.12493896484375,0.1256103515625,9.435114503816793,-150.4732824427481,-0.007633587786259542,868.9908256880734,-33.48623853211009,-9.357798165137615,,
1760476519.020323,0,0.20196533203125,0.12481689453125,0.12548828125,9.427480916030534,-140.70229007633588,-19.549618320610687,634.1284403669725,-33.94495412844037,-9.357798165137615,,
1760476519.031132,0,0.2021484375,0.1248779296875,0.12542724609375,9.435114503816793,-166.10687022900763,-31.27480916030534,728.0733944954129,-33.211009174311926,-9.08256880733945,,
1760476519.062898,0,0.2022705078125,0.1248779296875,0.12554931640625,9.427480916030534,-150.4732824427481,-15.641221374045802,915.9633027522937,-34.12844036697248,-9.908256880733946,,
1760476519.0840595,0,0.20245361328125,0.1248779296875,0.12542724609375,9.427480916030534,-144.61068702290078,-23.458015267175572,728.0733944954129,-33.48623853211009,-9.26605504587156,,
1760476519.1158533,0,0.20257568359375,0.12481689453125,0.12542724609375,9.435114503816793,-134.83969465648855,-52.770992366412216,634.1284403669725,-33.85321100917431,-9.541284403669724,,
1760476519.126522,0,0.2027587890625,0.12481689453125,0.12542724609375,9.412213740458014,-134.83969465648855,-35.18320610687023,610.6422018348624,-33.94495412844037,-9.26605504587156,,
1760476519.1480043,0,0.202880859375,0.1248779296875,0.12542724609375,9.412213740458014,-134.83969465648855,-17.595419847328245,422.7522935779817,-33.02752293577982,-9.724770642201836,,
1760476519.1587305,0,0.20306396484375,0.12493896484375,0.12548828125,9.412213740458014,-134.83969465648855,-23.458015267175572,352.2935779816514,-33.02752293577982,-10.091743119266056,,
1760476519.1799748,0,0.20318603515625,0.1248779296875,0.1253662109375,9.427480916030534,-179.78625954198472,-31.27480916030534,610.6422018348624,-33.6697247706422,-9.541284403669724,,
1760476519.1906781,0,0.203369140625,0.12493896484375,0.12548828125,9.435114503816793,-121.16030534351145,-11.732824427480915,704.5871559633028,-33.48623853211009,-10.275229357798166,,
1760476519.2117515,0,0.2034912109375,0.124755859375,0.12548828125,9.427480916030534,-150.4732824427481,-9.778625954198473,328.8073394495413,-33.57798165137615,-9.357798165137615,,
1760476519.2433684,0,0.20367431640625,0.12481689453125,0.12548828125,9.442748091603054,-138.74809160305344,-5.870229007633588,446.2385321100918,-32.93577981651376,-9.541284403669724,,
1760476519.2541704,0,0.20379638671875,0.1248779296875,0.12542724609375,9.404580152671755,-134.83969465648855,-44.954198473282446,610.6422018348624,-33.02752293577982,-9.81651376146789,,
1760476519.2755377,0,0.2039794921875,0.1248779296875,0.12548828125,9.427480916030534,-162.19847328244273,-39.091603053435115,681.1009174311927,-33.11926605504587,-9.63302752293578,,
1760476519.2862823,0,0.2041015625,0.1248779296875,0.12542724609375,9.419847328244275,-158.29007633587787,-68.40458015267176,728.0733944954129,-33.48623853211009,-9.541284403669724,,
1760476519.3180122,0,0.20428466796875,0.12493896484375,0.12554931640625,9.435114503816793,-177.8320610687023,-7.824427480916031,751.559633027523,-32.93577981651376,-8.89908256880734,,
1760476519.3393528,0,0.20440673828125,0.12481689453125,0.12554931640625,9.419847328244275,-148.51908396946564,-31.27480916030534,751.559633027523,-34.03669724770642,-9.63302752293578,,
1760476519.3502045,0,0.20458984375,0.12493896484375,0.1253662109375,9.419847328244275,-128.9770992366412,-11.732824427480915,587.1559633027523,-33.30275229357798,-9.357798165137615,,
1760476519.3712103,0,0.2047119140625,0.12469482421875,0.12554931640625,9.419847328244275,-154.38167938931298,-62.541984732824424,469.72477064220186,-33.48623853211009,-8.89908256880734,,
1760476519.381974,0,0.20489501953125,0.1248779296875,0.1253662109375,9.412213740458014,-111.38931297709924,-27.366412213740457,493.2110091743119,-33.02752293577982,-9.724770642201836,,
1760476519.403311,0,0.20501708984375,0.1248779296875,0.12554931640625,9.419847328244275,-146.5648854961832,-48.86259541984733,587.1559633027523,-33.02752293577982,-9.174311926605505,,
1760476519.4352567,0,0.2052001953125,0.12493896484375,0.12542724609375,9.419847328244275,-128.9770992366412,-37.13740458015267,493.2110091743119,-33.30275229357798,-10.091743119266056,,
1760476519.4670403,0,0.205322265625,0.12493896484375,0.1253662109375,9.427480916030534,-148.51908396946564,-44.954198473282446,493.2110091743119,-33.39449541284404,-9.26605504587156,,
1760476519.4778306,0,0.20550537109375,0.1248779296875,0.12542724609375,9.419847328244275,-170.01526717557252,-52.770992366412216,516.6972477064221,-33.76146788990826,-9.908256880733946,,
1760476519.499096,0,0.20562744140625,0.1248779296875,0.12548828125,9.435114503816793,-164.15267175572518,-11.732824427480915,446.2385321100918,-33.76146788990826,-9.44954128440367,,
1760476519.509852,0,0.205810546875,0.12493896484375,0.12542724609375,9.427480916030534,-162.19847328244273,-33.229007633587784,704.5871559633028,-32.93577981651376,-10.18348623853211,,
1760476519.5312457,0,0.2059326171875,0.12493896484375,0.12554931640625,9.419847328244275,-154.38167938931298,-29.3206106870229,563.6697247706422,-33.76146788990826,-9.08256880733945,,
1760476519.5419815,0,0.20611572265625,0.1248779296875,0.12554931640625,9.435114503816793,-130.93129770992365,-46.908396946564885,422.7522935779817,-33.6697247706422,-9.81651376146789,,
1760476519.5633318,0,0.20623779296875,0.12493896484375,0.12554931640625,9.435114503816793,-140.70229007633588,-64.49618320610686,845.5045871559633,-33.6697247706422,-9.357798165137615,,
1760476519.5953083,0,0.2064208984375,0.12493896484375,0.12530517578125,9.412213740458014,-148.51908396946564,-43.0,845.5045871559633,-33.6697247706422,-9.357798165137615,,
1760476519.606114,0,0.20654296875,0.1248779296875,0.12567138671875,9.435114503816793,-171.96946564885496,-46.908396946564885,399.26605504587155,-33.02752293577982,-8.990825688073395,,
1760476519.6274714,0,0.20672607421875,0.1248779296875,0.1256103515625,9.419847328244275,-138.74809160305344,-5.870229007633588,493.2110091743119,-33.11926605504587,-9.541284403669724,,
1760476519.6487658,0,0.20684814453125,0.1248779296875,0.12567138671875,9.404580152671755,-164.15267175572518,-41.045801526717554,634.1284403669725,-33.211009174311926,-9.63302752293578,,
1760476519.6592743,0,0.20703125,0.12481689453125,0.1253662109375,9.435114503816793,-160.24427480916032,-21.50381679389313,399.26605504587155,-33.85321100917431,-10.0,,
1760476519.680387,0,0.2071533203125,0.1248779296875,0.12542724609375,9.427480916030534,-146.5648854961832,-29.3206106870229,657.6146788990826,-33.30275229357798,-9.174311926605505,,
1760476519.7118042,0,0.20733642578125,0.1248779296875,0.1256103515625,9.404580152671755,-179.78625954198472,-23.458015267175572,399.26605504587155,-33.57798165137615,-9.357798165137615,,
1760476519.7436998,0,0.20745849609375,0.12481689453125,0.12548828125,9.404580152671755,-125.06870229007633,-17.595419847328245,493.2110091743119,-32.84403669724771,-9.08256880733945,,
1760476519.7544787,0,0.2076416015625,0.1248779296875,0.12554931640625,9.404580152671755,-158.29007633587787,-33.229007633587784,422.7522935779817,-33.39449541284404,-9.174311926605505,,
1760476519.7652566,0,0.207763671875,0.12481689453125,0.12548828125,9.419847328244275,-152.42748091603053,-52.770992366412216,422.7522935779817,-33.6697247706422,-9.724770642201836,,
1760476519.7865767,0,0.20794677734375,0.12493896484375,0.12554931640625,9.427480916030534,-160.24427480916032,-27.366412213740457,775.045871559633,-33.211009174311926,-9.44954128440367,,
1760476519.7973633,0,0.20806884765625,0.12481689453125,0.1256103515625,9.427480916030534,-148.51908396946564,-78.17557251908397,681.1009174311927,-33.39449541284404,-9.174311926605505,,
1760476519.8185642,0,0.208251953125,0.1248779296875,0.12554931640625,9.412213740458014,-105.52671755725191,-60.587786259541986,986.4220183486239,-33.30275229357798,-9.541284403669724,,
1760476519.8500943,0,0.2083740234375,0.1248779296875,0.1256103515625,9.435114503816793,-144.61068702290078,-56.6793893129771,469.72477064220186,-33.30275229357798,-10.0,,
1760476519.860754,0,0.20855712890625,0.1248779296875,0.12554931640625,9.412213740458014,-154.38167938931298,-31.27480916030534,822.0183486238533,-32.38532110091743,-9.357798165137615,,
1760476519.8820071,0,0.20867919921875,0.1248779296875,0.12548828125,9.419847328244275,-132.8854961832061,-5.870229007633588,540.1834862385322,-33.85321100917431,-8.807339449541285,,
1760476519.9138868,0,0.2088623046875,0.1248779296875,0.12548828125,9.419847328244275,-150.4732824427481,15.633587786259541,328.8073394495413,-33.57798165137615,-9.44954128440367,,
1760476519.9246268,0,0.208984375,0.125,0.1256103515625,9.435114503816793,-138.74809160305344,-3.9160305343511452,540.1834862385322,-34.03669724770642,-9.44954128440367,,
1760476519.9458606,0,0.20916748046875,0.1248779296875,0.12548828125,9.427480916030534,-125.06870229007633,-5.870229007633588,822.0183486238533,-33.6697247706422,-9.81651376146789,,
1760476519.9565668,0,0.20928955078125,0.1248779296875,0.12548828125,9.412213740458014,-123.1145038167939,-52.770992366412216,540.1834862385322,-33.11926605504587,-9.541284403669724,,
1760476519.9780257,0,0.20947265625,0.1248779296875,0.12554931640625,9.427480916030534,-115.29770992366412,-37.13740458015267,187.88990825688074,-33.211009174311926,-10.458715596330276,,
1760476520.009796,0,0.2095947265625,0.12481689453125,0.12542724609375,9.412213740458014,-181.74045801526717,-27.366412213740457,704.5871559633028,-33.30275229357798,-9.26605504587156,,
1760476520.0204005,0,0.20977783203125,0.12481689453125,0.12548828125,9.427480916030534,-175.87786259541986,-29.3206106870229,446.2385321100918,-33.30275229357798,-9.63302752293578,,
1760476520.0418193,0,0.20989990234375,0.12493896484375,0.12548828125,9.404580152671755,-128.9770992366412,-31.27480916030534,540.1834862385322,-34.12844036697248,-9.541284403669724,,
1760476520.063189,0,0.2100830078125,0.1248779296875,0.12548828125,9.412213740458014,-148.51908396946564,-21.50381679389313,516.6972477064221,-33.39449541284404,-8.89908256880734,,
1760476520.0737982,0,0.210205078125,0.12481689453125,0.12548828125,9.427480916030534,-160.24427480916032,-37.13740458015267,657.6146788990826,-33.48623853211009,-9.44954128440367,,
1760476520.1055317,0,0.21038818359375,0.1248779296875,0.12554931640625,9.427480916030534,-158.29007633587787,-35.18320610687023,751.559633027523,-33.211009174311926,-10.18348623853211,,
1760476520.1163177,0,0.21051025390625,0.125,0.12542724609375,9.404580152671755,-156.33587786259542,-27.366412213740457,798.5321100917431,-33.85321100917431,-9.63302752293578,,
1760476520.1271245,0,0.210693359375,0.1248779296875,0.12542724609375,9.419847328244275,-144.61068702290078,-41.045801526717554,728.0733944954129,-33.48623853211009,-9.08256880733945,,
1760476520.1588414,0,0.2108154296875,0.1248779296875,0.12542724609375,9.435114503816793,-150.4732824427481,-9.778625954198473,775.045871559633,-34.03669724770642,-9.724770642201836,,
1760476520.1692517,0,0.21099853515625,0.1248779296875,0.12548828125,9.435114503816793,-130.93129770992365,-60.587786259541986,493.2110091743119,-33.02752293577982,-9.357798165137615,,
1760476520.190478,0,0.21112060546875,0.12481689453125,0.12548828125,9.419847328244275,-170.01526717557252,-27.366412213740457,610.6422018348624,-33.94495412844037,-9.26605504587156,,
1760476520.2224581,0,0.2113037109375,0.12481689453125,0.12548828125,9.419847328244275,-183.6946564885496,-48.86259541984733,657.6146788990826,-33.02752293577982,-9.724770642201836,,
1760476520.2332242,0,0.21142578125,0.12493896484375,0.12548828125,9.404580152671755,-156.33587786259542,-19.549618320610687,587.1559633027523,-33.57798165137615,-9.541284403669724,,
1760476520.2545724,0,0.21160888671875,0.12493896484375,0.12567138671875,9.404580152671755,-127.02290076335878,-0.007633587786259542,939.4495412844037,-33.57798165137615,-9.724770642201836,,
1760476520.2654912,0,0.21173095703125,0.12481689453125,0.1253662109375,9.427480916030534,-148.51908396946564,-39.091603053435115,704.5871559633028,-33.85321100917431,-9.63302752293578,,
1760476520.2863972,0,0.2119140625,0.1248779296875,0.12548828125,9.427480916030534,-138.74809160305344,-68.40458015267176,634.1284403669725,-33.6697247706422,-8.715596330275229,,
1760476520.31769,0,0.2120361328125,0.1248779296875,0.12548828125,9.419847328244275,-136.793893129771,-29.3206106870229,868.9908256880734,-33.30275229357798,-9.908256880733946,,
1760476520.3284476,0,0.21221923828125,0.1248779296875,0.12548828125,9.427480916030534,-138.74809160305344,9.770992366412214,516.6972477064221,-32.6605504587156,-9.26605504587156,,
1760476520.3496938,0,0.21234130859375,0.125,0.1253662109375,9.427480916030534,-166.10687022900763,3.9083969465648853,634.1284403669725,-33.57798165137615,-9.44954128440367,,
1760476520.360202,0,0.2125244140625,0.12481689453125,0.12548828125,9.404580152671755,-138.74809160305344,-35.18320610687023,422.7522935779817,-33.48623853211009,-9.174311926605505,,
1760476520.3815298,0,0.212646484375,0.12481689453125,0.12542724609375,9.435114503816793,-171.96946564885496,-27.366412213740457,634.1284403669725,-34.22018348623853,-9.357798165137615,,
1760476520.413306,0,0.21282958984375,0.12481689453125,0.12548828125,9.435114503816793,-160.24427480916032,-33.229007633587784,587.1559633027523,-33.6697247706422,-9.357798165137615,,
1760476520.4237888,0,0.21295166015625,0.12481689453125,0.12548828125,9.427480916030534,-156.33587786259542,-19.549618320610687,140.91743119266056,-33.57798165137615,-9.541284403669724,,
1760476520.4448688,0,0.213134765625,0.12481689453125,0.12548828125,9.427480916030534,-130.93129770992365,-48.86259541984733,587.1559633027523,-33.85321100917431,-9.44954128440367,,
1760476520.4871714,0,0.2132568359375,0.124755859375,0.12542724609375,9.412213740458014,-146.5648854961832,-39.091603053435115,610.6422018348624,-32.6605504587156,-9.08256880733945,,
1760476520.4975927,0,0.21343994140625,0.12493896484375,0.12548828125,9.427480916030534,-168.06106870229007,-15.641221374045802,634.1284403669725,-33.57798165137615,-9.908256880733946,,
1760476520.5188956,0,0.21356201171875,0.1248779296875,0.12530517578125,9.412213740458014,-125.06870229007633,-41.045801526717554,469.72477064220186,-33.39449541284404,-9.174311926605505,,
1760476520.540001,0,0.2137451171875,0.124755859375,0.1253662109375,9.412213740458014,-128.9770992366412,-5.870229007633588,328.8073394495413,-33.211009174311926,-9.724770642201836,,
1760476520.5504456,0,0.2138671875,0.1248779296875,0.12548828125,9.427480916030534,-144.61068702290078,-48.86259541984733,540.1834862385322,-33.11926605504587,-9.63302752293578,,
1760476520.5716057,0,0.21405029296875,0.12481689453125,0.12554931640625,9.419847328244275,-142.65648854961833,-58.63358778625954,728.0733944954129,-32.75229357798165,-9.724770642201836,,
1760476520.582364,0,0.21417236328125,0.1248779296875,0.12542724609375,9.427480916030534,-154.38167938931298,-41.045801526717554,258.34862385321105,-33.57798165137615,-9.26605504587156,,
1760476520.6038592,0,0.21435546875,0.12481689453125,0.12548828125,9.419847328244275,-158.29007633587787,-17.595419847328245,775.045871559633,-33.02752293577982,-9.26605504587156,,
1760476520.6146202,0,0.2144775390625,0.124755859375,0.12542724609375,9.427480916030534,-170.01526717557252,-15.641221374045802,305.3211009174312,-33.48623853211009,-9.724770642201836,,
1760476520.635844,0,0.21466064453125,0.1248779296875,0.12548828125,9.419847328244275,-150.4732824427481,-37.13740458015267,540.1834862385322,-33.57798165137615,-9.08256880733945,,
1760476520.667532,0,0.21478271484375,0.12481689453125,0.12548828125,9.419847328244275,-156.33587786259542,-39.091603053435115,868.9908256880734,-33.48623853211009,-9.44954128440367,,
1760476520.6781921,0,0.2149658203125,0.124755859375,0.12542724609375,9.419847328244275,-154.38167938931298,-23.458015267175572,704.5871559633028,-33.11926605504587,-10.0,,
1760476520.6995075,0,0.215087890625,0.1248779296875,0.12548828125,9.412213740458014,-140.70229007633588,-48.86259541984733,704.5871559633028,-33.6697247706422,-9.44954128440367,,
1760476520.731155,0,0.21527099609375,0.1248779296875,0.12542724609375,9.427480916030534,-156.33587786259542,-39.091603053435115,446.2385321100918,-33.6697247706422,-9.44954128440367,,
1760476520.7416677,0,0.21539306640625,0.124755859375,0.1253662109375,9.435114503816793,-136.793893129771,-60.587786259541986,610.6422018348624,-33.39449541284404,-9.541284403669724,,
1760476520.7627192,0,0.215576171875,0.12481689453125,0.12548828125,9.419847328244275,-171.96946564885496,-43.0,352.2935779816514,-33.57798165137615,-10.18348623853211,,
1760476520.773424,0,0.2156982421875,0.12481689453125,0.12548828125,9.419847328244275,-136.793893129771,-44.954198473282446,728.0733944954129,-33.30275229357798,-9.541284403669724,,
1760476520.7947397,0,0.21588134765625,0.12481689453125,0.12548828125,9.419847328244275,-138.74809160305344,-13.687022900763358,681.1009174311927,-33.48623853211009,-9.724770642201836,,
1760476520.8261983,0,0.21600341796875,0.12481689453125,0.12548828125,9.427480916030534,-160.24427480916032,-60.587786259541986,446.2385321100918,-32.93577981651376,-9.174311926605505,,
1760476520.8369396,0,0.2161865234375,0.1248779296875,0.12542724609375,9.404580152671755,-134.83969465648855,15.633587786259541,516.6972477064221,-33.39449541284404,-9.44954128440367,,
1760476520.8582695,0,0.21630859375,0.1248779296875,0.1253662109375,9.435114503816793,-134.83969465648855,-13.687022900763358,540.1834862385322,-34.12844036697248,-8.990825688073395,,
1760476520.8897264,0,0.21649169921875,0.12493896484375,0.12548828125,9.427480916030534,-154.38167938931298,-50.81679389312977,610.6422018348624,-33.48623853211009,-8.89908256880734,,
1760476520.9004316,0,0.21661376953125,0.12469482421875,0.1253662109375,9.396946564885496,-132.8854961832061,-21.50381679389313,634.1284403669725,-32.93577981651376,-9.541284403669724,,
1760476520.911306,0,0.216796875,0.1248779296875,0.12542724609375,9.412213740458014,-146.5648854961832,-19.549618320610687,704.5871559633028,-33.211009174311926,-9.541284403669724,,
1760476520.9219637,0,0.2169189453125,0.12481689453125,0.1256103515625,9.419847328244275,-130.93129770992365,-50.81679389312977,469.72477064220186,-32.477064220183486,-9.541284403669724,,
1760476520.9535153,0,0.21710205078125,0.1248779296875,0.1253662109375,9.419847328244275,-177.8320610687023,-39.091603053435115,939.4495412844037,-34.03669724770642,-10.18348623853211,,
1760476520.985448,0,0.21722412109375,0.1248779296875,0.1256103515625,9.427480916030534,-166.10687022900763,-46.908396946564885,798.5321100917431,-32.93577981651376,-9.174311926605505,,
1760476520.9960856,0,0.2174072265625,0.124755859375,0.1253662109375,9.404580152671755,-171.96946564885496,-5.870229007633588,540.1834862385322,-33.211009174311926,-9.63302752293578,,
1760476521.0172975,0,0.217529296875,0.12481689453125,0.12548828125,9.427480916030534,-132.8854961832061,-17.595419847328245,704.5871559633028,-33.30275229357798,-9.724770642201836,,
1760476521.0491238,0,0.21771240234375,0.1248779296875,0.12548828125,9.427480916030534,-150.4732824427481,-31.27480916030534,728.0733944954129,-33.30275229357798,-9.724770642201836,,
1760476521.0597274,0,0.21783447265625,0.1248779296875,0.12542724609375,9.412213740458014,-128.9770992366412,-1.9618320610687023,399.26605504587155,-33.48623853211009,-9.357798165137615,,
1760476521.0809252,0,0.218017578125,0.1248779296875,0.12542724609375,9.396946564885496,-127.02290076335878,-43.0,751.559633027523,-33.39449541284404,-9.357798165137615,,
1760476521.1126156,0,0.2181396484375,0.12481689453125,0.12548828125,9.404580152671755,-136.793893129771,-46.908396946564885,775.045871559633,-34.12844036697248,-9.44954128440367,,
1760476521.1233747,0,0.21832275390625,0.124755859375,0.1256103515625,9.419847328244275,-142.65648854961833,-52.770992366412216,1056.8807339449543,-33.57798165137615,-9.08256880733945,,
1760476521.1446679,0,0.21844482421875,0.1248779296875,0.12542724609375,9.419847328244275,-140.70229007633588,-52.770992366412216,704.5871559633028,-33.211009174311926,-9.724770642201836,,
1760476521.1552598,0,0.2186279296875,0.1248779296875,0.1253662109375,9.412213740458014,-156.33587786259542,-15.641221374045802,868.9908256880734,-32.38532110091743,-9.81651376146789,,
1760476521.1764228,0,0.21875,0.1248779296875,0.12548828125,9.419847328244275,-191.5114503816794,-9.778625954198473,822.0183486238533,-33.57798165137615,-9.63302752293578,,
1760476521.187218,0,0.21893310546875,0.1248779296875,0.12548828125,9.435114503816793,-111.38931297709924,-29.3206106870229,634.1284403669725,-33.6697247706422,-9.357798165137615,,
1760476521.2084496,0,0.21905517578125,0.12481689453125,0.12548828125,9.412213740458014,-144.61068702290078,-44.954198473282446,657.6146788990826,-33.6697247706422,-9.63302752293578,,
1760476521.2398221,0,0.21923828125,0.1248779296875,0.12542724609375,9.419847328244275,-123.1145038167939,-15.641221374045802,422.7522935779817,-33.76146788990826,-9.724770642201836,,
1760476521.2502668,0,0.2193603515625,0.12481689453125,0.12548828125,9.427480916030534,-164.15267175572518,-43.0,493.2110091743119,-33.48623853211009,-9.44954128440367,,
1760476521.2715333,0,0.21954345703125,0.1248779296875,0.12548828125,9.412213740458014,-148.51908396946564,-50.81679389312977,681.1009174311927,-33.39449541284404,-9.541284403669724,,
1760476521.2821813,0,0.21966552734375,0.12493896484375,0.12542724609375,9.412213740458014,-164.15267175572518,-21.50381679389313,704.5871559633028,-33.30275229357798,-9.26605504587156,,
1760476521.303221,0,0.2198486328125,0.1248779296875,0.12548828125,9.427480916030534,-136.793893129771,-62.541984732824424,446.2385321100918,-33.57798165137615,-9.908256880733946,,
1760476521.3350508,0,0.219970703125,0.12493896484375,0.12548828125,9.442748091603054,-166.10687022900763,-60.587786259541986,587.1559633027523,-33.48623853211009,-9.44954128440367,,
1760476521.345877,0,0.22015380859375,0.1248779296875,0.12548828125,9.435114503816793,-134.83969465648855,-23.458015267175572,540.1834862385322,-33.48623853211009,-9.724770642201836,,
1760476521.3668575,0,0.22027587890625,0.12493896484375,0.1256103515625,9.412213740458014,-138.74809160305344,-21.50381679389313,516.6972477064221,-33.11926605504587,-10.275229357798166,,
1760476521.3985882,0,0.220458984375,0.1248779296875,0.1253662109375,9.412213740458014,-175.87786259541986,-29.3206106870229,681.1009174311927,-33.11926605504587,-9.541284403669724,,
1760476521.409132,0,0.2205810546875,0.12481689453125,0.1253662109375,9.412213740458014,-142.65648854961833,-41.045801526717554,681.1009174311927,-33.76146788990826,-9.541284403669724,,
1760476521.4298236,0,0.22076416015625,0.12481689453125,0.12554931640625,9.412213740458014,-142.65648854961833,-33.229007633587784,446.2385321100918,-33.11926605504587,-9.541284403669724,,
1760476521.4402716,0,0.22088623046875,0.12493896484375,0.12548828125,9.427480916030534,-154.38167938931298,-58.63358778625954,493.2110091743119,-33.11926605504587,-9.724770642201836,,
1760476521.461107,0,0.2210693359375,0.1248779296875,0.12548828125,9.389312977099237,-142.65648854961833,-25.412213740458014,728.0733944954129,-33.48623853211009,-9.63302752293578,,
1760476521.4922993,0,0.22119140625,0.12481689453125,0.12554931640625,9.404580152671755,-158.29007633587787,-31.27480916030534,657.6146788990826,-34.31192660550459,-9.63302752293578,,
1760476521.502781,0,0.22137451171875,0.12493896484375,0.12548828125,9.427480916030534,-170.01526717557252,-41.045801526717554,892.4770642201836,-33.30275229357798,-10.0,,
1760476521.5239644,0,0.22149658203125,0.1248779296875,0.12530517578125,9.435114503816793,-144.61068702290078,-54.725190839694655,516.6972477064221,-33.30275229357798,-9.81651376146789,,
1760476521.545315,0,0.2216796875,0.12493896484375,0.12548828125,9.427480916030534,-121.16030534351145,-21.50381679389313,375.7798165137615,-32.93577981651376,-9.724770642201836,,
1760476521.5558543,0,0.2218017578125,0.12493896484375,0.12542724609375,9.442748091603054,-148.51908396946564,-33.229007633587784,610.6422018348624,-33.211009174311926,-9.81651376146789,,
1760476521.577062,0,0.22198486328125,0.12481689453125,0.12548828125,9.412213740458014,-130.93129770992365,-7.824427480916031,798.5321100917431,-33.30275229357798,-10.091743119266056,,
1760476521.6193168,0,0.22210693359375,0.12493896484375,0.1253662109375,9.419847328244275,-160.24427480916032,-50.81679389312977,845.5045871559633,-33.48623853211009,-9.357798165137615,,
1760476521.6300309,0,0.2222900390625,0.12481689453125,0.12548828125,9.412213740458014,-142.65648854961833,-31.27480916030534,845.5045871559633,-33.48623853211009,-9.63302752293578,,
1760476521.6515062,0,0.222412109375,0.1248779296875,0.1253662109375,9.412213740458014,-156.33587786259542,-44.954198473282446,704.5871559633028,-33.02752293577982,-9.541284403669724,,
1760476521.6620934,0,0.22259521484375,0.12493896484375,0.12548828125,9.404580152671755,-142.65648854961833,-23.458015267175572,540.1834862385322,-33.02752293577982,-9.908256880733946,,
1760476521.6828938,0,0.22271728515625,0.12493896484375,0.12548828125,9.435114503816793,-127.02290076335878,-54.725190839694655,610.6422018348624,-33.57798165137615,-9.44954128440367,,
1760476521.7040546,0,0.222900390625,0.1248779296875,0.1253662109375,9.419847328244275,-156.33587786259542,-52.770992366412216,657.6146788990826,-33.48623853211009,-9.908256880733946,,
1760476521.714932,0,0.2230224609375,0.1248779296875,0.12548828125,9.412213740458014,-171.96946564885496,-66.45038167938931,610.6422018348624,-33.94495412844037,-9.81651376146789,,
1760476521.7465498,0,0.22320556640625,0.1248779296875,0.12548828125,9.419847328244275,-125.06870229007633,-43.0,610.6422018348624,-33.30275229357798,-9.26605504587156,,
1760476521.7572966,0,0.22332763671875,0.12481689453125,0.12554931640625,9.419847328244275,-130.93129770992365,-5.870229007633588,634.1284403669725,-33.48623853211009,-9.724770642201836,,
1760476521.778443,0,0.2235107421875,0.1248779296875,0.12542724609375,9.435114503816793,-148.51908396946564,-7.824427480916031,610.6422018348624,-33.02752293577982,-10.0,,
1760476521.7890124,0,0.2236328125,0.1248779296875,0.1253662109375,9.412213740458014,-144.61068702290078,-54.725190839694655,375.7798165137615,-33.211009174311926,-9.357798165137615,,
1760476521.8100011,0,0.22381591796875,0.12493896484375,0.12548828125,9.419847328244275,-179.78625954198472,0.0,775.045871559633,-33.39449541284404,-9.357798165137615,,
1760476521.8408368,0,0.22393798828125,0.1248779296875,0.12548828125,9.427480916030534,-148.51908396946564,-54.725190839694655,493.2110091743119,-33.30275229357798,-9.541284403669724,,
1760476521.8512678,0,0.22412109375,0.12481689453125,0.12542724609375,9.404580152671755,-140.70229007633588,-27.366412213740457,939.4495412844037,-33.57798165137615,-9.81651376146789,,
1760476521.8721073,0,0.2242431640625,0.12481689453125,0.1256103515625,9.412213740458014,-144.61068702290078,-37.13740458015267,540.1834862385322,-33.39449541284404,-10.275229357798166,,
1760476521.903243,0,0.22442626953125,0.125,0.12548828125,9.396946564885496,-134.83969465648855,-39.091603053435115,375.7798165137615,-32.38532110091743,-9.357798165137615,,
1760476521.9137414,0,0.22454833984375,0.125,0.1253662109375,9.419847328244275,-140.70229007633588,-37.13740458015267,563.6697247706422,-33.211009174311926,-9.357798165137615,,
1760476521.9348252,0,0.2247314453125,0.1248779296875,0.12542724609375,9.419847328244275,-148.51908396946564,-52.770992366412216,704.5871559633028,-33.30275229357798,-9.541284403669724,,
1760476521.966721,0,0.224853515625,0.12481689453125,0.12542724609375,9.396946564885496,-154.38167938931298,-23.458015267175572,516.6972477064221,-34.12844036697248,-9.08256880733945,,
1760476521.9773612,0,0.22503662109375,0.1248779296875,0.12554931640625,9.396946564885496,-173.9236641221374,-37.13740458015267,868.9908256880734,-33.211009174311926,-9.357798165137615,,
1760476521.9984572,0,0.22515869140625,0.1248779296875,0.12542724609375,9.412213740458014,-164.15267175572518,-44.954198473282446,822.0183486238533,-33.211009174311926,-9.724770642201836,,
1760476522.0092442,0,0.225341796875,0.1248779296875,0.12530517578125,9.419847328244275,-164.15267175572518,-29.3206106870229,446.2385321100918,-33.02752293577982,-9.81651376146789,,
1760476522.030398,0,0.2254638671875,0.1248779296875,0.1253662109375,9.419847328244275,-115.29770992366412,-64.49618320610686,868.9908256880734,-33.39449541284404,-9.26605504587156,,
1760476522.0411844,0,0.22564697265625,0.1248779296875,0.12542724609375,9.412213740458014,-136.793893129771,-50.81679389312977,516.6972477064221,-33.57798165137615,-10.0,,
1760476522.0625482,0,0.22576904296875,0.1248779296875,0.1256103515625,9.435114503816793,-130.93129770992365,-56.6793893129771,986.4220183486239,-33.39449541284404,-9.357798165137615,,
1760476522.0939705,0,0.2259521484375,0.12481689453125,0.1253662109375,9.427480916030534,-170.01526717557252,9.770992366412214,939.4495412844037,-33.39449541284404,-9.81651376146789,,
1760476522.1044824,0,0.22607421875,0.1248779296875,0.1256103515625,9.419847328244275,-127.02290076335878,-7.824427480916031,681.1009174311927,-33.30275229357798,-9.908256880733946,,
1760476522.1253583,0,0.22625732421875,0.12481689453125,0.12548828125,9.435114503816793,-160.24427480916032,-48.86259541984733,868.9908256880734,-33.39449541284404,-9.44954128440367,,
1760476522.1569333,0,0.22637939453125,0.12481689453125,0.12554931640625,9.442748091603054,-146.5648854961832,-60.587786259541986,563.6697247706422,-33.6697247706422,-9.724770642201836,,
1760476522.1890128,0,0.2265625,0.12481689453125,0.12548828125,9.427480916030534,-128.9770992366412,-13.687022900763358,399.26605504587155,-33.02752293577982,-9.44954128440367,,
1760476522.1998036,0,0.2266845703125,0.12493896484375,0.12548828125,9.419847328244275,-136.793893129771,-46.908396946564885,822.0183486238533,-33.57798165137615,-9.44954128440367,,
1760476522.2209249,0,0.22686767578125,0.12481689453125,0.12548828125,9.427480916030534,-134.83969465648855,-31.27480916030534,704.5871559633028,-33.30275229357798,-9.81651376146789,,
1760476522.2315288,0,0.22698974609375,0.1248779296875,0.12554931640625,9.427480916030534,-144.61068702290078,-35.18320610687023,516.6972477064221,-33.30275229357798,-9.908256880733946,,
1760476522.252606,0,0.2271728515625,0.12481689453125,0.12548828125,9.435114503816793,-150.4732824427481,-19.549618320610687,728.0733944954129,-33.76146788990826,-9.81651376146789,,
1760476522.263267,0,0.227294921875,0.1248779296875,0.12548828125,9.442748091603054,-127.02290076335878,-58.63358778625954,845.5045871559633,-33.30275229357798,-9.357798165137615,,
1760476522.28432,0,0.22747802734375,0.125,0.12548828125,9.404580152671755,-132.8854961832061,-48.86259541984733,657.6146788990826,-33.85321100917431,-10.091743119266056,,
1760476522.3157501,0,0.22760009765625,0.1248779296875,0.12542724609375,9.427480916030534,-175.87786259541986,-25.412213740458014,939.4495412844037,-33.57798165137615,-9.44954128440367,,
1760476522.3262424,0,0.227783203125,0.12481689453125,0.12548828125,9.419847328244275,-160.24427480916032,-19.549618320610687,822.0183486238533,-33.57798165137615,-9.44954128440367,,
1760476522.3474066,0,0.2279052734375,0.1248779296875,0.1256103515625,9.419847328244275,-138.74809160305344,-29.3206106870229,563.6697247706422,-32.84403669724771,-9.44954128440367,,
1760476522.3583467,0,0.22808837890625,0.1248779296875,0.12548828125,9.427480916030534,-142.65648854961833,-39.091603053435115,681.1009174311927,-33.76146788990826,-9.26605504587156,,
1760476522.379733,0,0.22821044921875,0.1248779296875,0.12554931640625,9.435114503816793,-154.38167938931298,0.0,540.1834862385322,-33.11926605504587,-9.724770642201836,,
1760476522.4008374,0,0.2283935546875,0.124755859375,0.12554931640625,9.427480916030534,-121.16030534351145,1.9541984732824427,681.1009174311927,-33.39449541284404,-9.541284403669724,,
1760476522.4116073,0,0.228515625,0.1248779296875,0.12548828125,9.427480916030534,-134.83969465648855,-58.63358778625954,892.4770642201836,-33.85321100917431,-9.26605504587156,,
1760476522.432744,0,0.22869873046875,0.1248779296875,0.1253662109375,9.419847328244275,-134.83969465648855,-50.81679389312977,986.4220183486239,-33.48623853211009,-8.807339449541285,,
1760476522.4644291,0,0.22882080078125,0.1248779296875,0.12542724609375,9.412213740458014,-187.6030534351145,-41.045801526717554,399.26605504587155,-33.57798165137615,-9.63302752293578,,
1760476522.474926,0,0.22900390625,0.1248779296875,0.12548828125,9.412213740458014,-164.15267175572518,-46.908396946564885,540.1834862385322,-32.75229357798165,-10.0,,
1760476522.4959745,0,0.2291259765625,0.1248779296875,0.12542724609375,9.419847328244275,-166.10687022900763,-15.641221374045802,469.72477064220186,-33.211009174311926,-9.541284403669724,,
1760476522.5273933,0,0.22930908203125,0.1248779296875,0.12548828125,9.435114503816793,-125.06870229007633,-15.641221374045802,775.045871559633,-33.94495412844037,-9.174311926605505,,
1760476522.538171,0,0.22943115234375,0.1248779296875,0.12542724609375,9.427480916030534,-173.9236641221374,-29.3206106870229,493.2110091743119,-33.02752293577982,-9.08256880733945,,
1760476522.559516,0,0.2296142578125,0.1248779296875,0.1253662109375,9.419847328244275,-117.25190839694656,-48.86259541984733,681.1009174311927,-33.6697247706422,-8.89908256880734,,
1760476522.5913124,0,0.229736328125,0.1248779296875,0.1253662109375,9.404580152671755,-146.5648854961832,-9.778625954198473,540.1834862385322,-33.11926605504587,-9.63302752293578,,
1760476522.601805,0,0.22991943359375,0.12493896484375,0.12548828125,9.412213740458014,-154.38167938931298,-0.007633587786259542,634.1284403669725,-32.93577981651376,-9.357798165137615,,
1760476522.6228635,0,0.23004150390625,0.1248779296875,0.12548828125,9.412213740458014,-158.29007633587787,-11.732824427480915,469.72477064220186,-33.57798165137615,-9.63302752293578,,
1760476522.633451,0,0.230224609375,0.12481689453125,0.12554931640625,9.412213740458014,-152.42748091603053,-35.18320610687023,422.7522935779817,-33.48623853211009,-9.541284403669724,,
1760476522.654497,0,0.2303466796875,0.12493896484375,0.12542724609375,9.412213740458014,-166.10687022900763,-25.412213740458014,634.1284403669725,-33.85321100917431,-9.541284403669724,,
1760476522.6864178,0,0.23052978515625,0.1248779296875,0.1253662109375,9.412213740458014,-156.33587786259542,-27.366412213740457,681.1009174311927,-32.56880733944954,-9.541284403669724,,
1760476522.6971962,0,0.23065185546875,0.12493896484375,0.1256103515625,9.427480916030534,-168.06106870229007,-43.0,704.5871559633028,-33.48623853211009,-9.724770642201836,,
1760476522.718508,0,0.2308349609375,0.12481689453125,0.12542724609375,9.412213740458014,-127.02290076335878,-25.412213740458014,728.0733944954129,-34.12844036697248,-9.541284403669724,,
1760476522.7292633,0,0.23095703125,0.12493896484375,0.12548828125,9.419847328244275,-170.01526717557252,-29.3206106870229,868.9908256880734,-33.76146788990826,-9.357798165137615,,
1760476522.750374,0,0.23114013671875,0.12481689453125,0.1253662109375,9.442748091603054,-166.10687022900763,-33.229007633587784,399.26605504587155,-33.6697247706422,-8.89908256880734,,
1760476522.7713046,0,0.23126220703125,0.1248779296875,0.12554931640625,9.419847328244275,-115.29770992366412,-9.778625954198473,516.6972477064221,-34.03669724770642,-9.26605504587156,,
1760476522.8034632,0,0.2314453125,0.1248779296875,0.12548828125,9.419847328244275,-166.10687022900763,-66.45038167938931,634.1284403669725,-33.57798165137615,-8.715596330275229,,
1760476522.8142593,0,0.2315673828125,0.1248779296875,0.12542724609375,9.427480916030534,-148.51908396946564,-31.27480916030534,399.26605504587155,-33.11926605504587,-9.81651376146789,,
1760476522.8356056,0,0.23175048828125,0.12481689453125,0.12548828125,9.427480916030534,-144.61068702290078,-19.549618320610687,1009.908256880734,-33.211009174311926,-9.81651376146789,,
1760476522.8461885,0,0.23187255859375,0.12493896484375,0.12548828125,9.435114503816793,-125.06870229007633,-27.366412213740457,563.6697247706422,-33.57798165137615,-8.990825688073395,,
1760476522.8772945,0,0.2320556640625,0.12493896484375,0.12554931640625,9.412213740458014,-164.15267175572518,-48.86259541984733,305.3211009174312,-34.12844036697248,-9.63302752293578,,
1760476522.8878028,0,0.232177734375,0.12493896484375,0.12542724609375,9.412213740458014,-150.4732824427481,-0.007633587786259542,634.1284403669725,-33.39449541284404,-9.541284403669724,,
1760476522.908992,0,0.23236083984375,0.1248779296875,0.12548828125,9.419847328244275,-130.93129770992365,-50.81679389312977,822.0183486238533,-33.11926605504587,-9.357798165137615,,
1760476522.9197364,0,0.23248291015625,0.12481689453125,0.12542724609375,9.427480916030534,-148.51908396946564,-33.229007633587784,845.5045871559633,-33.211009174311926,-9.26605504587156,,
1760476522.941155,0,0.232666015625,0.1248779296875,0.12548828125,9.419847328244275,-142.65648854961833,-48.86259541984733,798.5321100917431,-32.6605504587156,-9.174311926605505,,
1760476522.9727104,0,0.2327880859375,0.1248779296875,0.12548828125,9.419847328244275,-136.793893129771,-27.366412213740457,704.5871559633028,-32.93577981651376,-9.724770642201836,,
1760476522.983518,0,0.23297119140625,0.12481689453125,0.12554931640625,9.419847328244275,-123.1145038167939,-46.908396946564885,1033.3944954128442,-33.57798165137615,-9.357798165137615,,
1760476523.004878,0,0.23309326171875,0.1248779296875,0.12548828125,9.419847328244275,-146.5648854961832,1.9541984732824427,657.6146788990826,-34.03669724770642,-8.990825688073395,,
1760476523.0155957,0,0.2332763671875,0.12481689453125,0.12548828125,9.396946564885496,-130.93129770992365,-25.412213740458014,375.7798165137615,-33.76146788990826,-9.81651376146789,,
1760476523.0370314,0,0.2333984375,0.1248779296875,0.12548828125,9.419847328244275,-138.74809160305344,-33.229007633587784,587.1559633027523,-32.38532110091743,-9.63302752293578,,
1760476523.0684838,0,0.23358154296875,0.12493896484375,0.12554931640625,9.419847328244275,-158.29007633587787,-41.045801526717554,657.6146788990826,-33.211009174311926,-9.63302752293578,,
1760476523.0790317,0,0.23370361328125,0.12481689453125,0.12542724609375,9.419847328244275,-154.38167938931298,-31.27480916030534,775.045871559633,-33.11926605504587,-9.724770642201836,,
1760476523.100444,0,0.23388671875,0.12481689453125,0.12554931640625,9.419847328244275,-123.1145038167939,-29.3206106870229,892.4770642201836,-33.48623853211009,-10.18348623853211,,
1760476523.1320732,0,0.2340087890625,0.124755859375,0.12542724609375,9.435114503816793,-154.38167938931298,-43.0,493.2110091743119,-33.39449541284404,-9.08256880733945,,
1760476523.163437,0,0.23419189453125,0.1248779296875,0.12542724609375,9.435114503816793,-128.9770992366412,-25.412213740458014,493.2110091743119,-33.211009174311926,-9.541284403669724,,
1760476523.1742425,0,0.23431396484375,0.12493896484375,0.12548828125,9.435114503816793,-132.8854961832061,-23.458015267175572,704.5871559633028,-33.11926605504587,-9.08256880733945,,
1760476523.1956325,0,0.2344970703125,0.124755859375,0.12542724609375,9.396946564885496,-150.4732824427481,-35.18320610687023,634.1284403669725,-33.30275229357798,-9.908256880733946,,
1760476523.2064226,0,0.234619140625,0.12493896484375,0.12554931640625,9.419847328244275,-138.74809160305344,-23.458015267175572,704.5871559633028,-32.93577981651376,-9.26605504587156,,
1760476523.2277834,0,0.23480224609375,0.12493896484375,0.12542724609375,9.412213740458014,-166.10687022900763,-7.824427480916031,422.7522935779817,-33.39449541284404,-9.44954128440367,,
1760476523.2382753,0,0.23492431640625,0.1248779296875,0.12548828125,9.404580152671755,-154.38167938931298,-29.3206106870229,657.6146788990826,-33.11926605504587,-8.89908256880734,,
1760476523.2593286,0,0.235107421875,0.12481689453125,0.1253662109375,9.419847328244275,-105.52671755725191,-54.725190839694655,587.1559633027523,-33.211009174311926,-9.44954128440367,,
1760476523.2911947,0,0.2352294921875,0.1248779296875,0.12548828125,9.419847328244275,-138.74809160305344,-29.3206106870229,798.5321100917431,-32.56880733944954,-9.26605504587156,,
1760476523.3016884,0,0.23541259765625,0.1248779296875,0.12542724609375,9.427480916030534,-138.74809160305344,-43.0,751.559633027523,-33.85321100917431,-9.908256880733946,,
1760476523.3230495,0,0.23553466796875,0.1248779296875,0.12548828125,9.412213740458014,-148.51908396946564,-5.870229007633588,328.8073394495413,-34.4954128440367,-9.08256880733945,,
1760476523.3443894,0,0.2357177734375,0.1248779296875,0.12548828125,9.435114503816793,-177.8320610687023,-33.229007633587784,516.6972477064221,-33.211009174311926,-9.63302752293578,,
1760476523.3551996,0,0.23583984375,0.12481689453125,0.12548828125,9.412213740458014,-144.61068702290078,-43.0,587.1559633027523,-33.85321100917431,-9.724770642201836,,
1760476523.3762972,0,0.23602294921875,0.12481689453125,0.1253662109375,9.435114503816793,-152.42748091603053,-29.3206106870229,868.9908256880734,-32.56880733944954,-9.08256880733945,,
1760476523.387171,0,0.23614501953125,0.12481689453125,0.12542724609375,9.427480916030534,-115.29770992366412,-54.725190839694655,610.6422018348624,-33.211009174311926,-9.44954128440367,,
1760476523.4187748,0,0.236328125,0.1248779296875,0.12542724609375,9.419847328244275,-142.65648854961833,-50.81679389312977,516.6972477064221,-33.94495412844037,-9.26605504587156,,
1760476523.4499636,0,0.2364501953125,0.12493896484375,0.1253662109375,9.427480916030534,-117.25190839694656,-52.770992366412216,352.2935779816514,-33.85321100917431,-9.541284403669724,,
1760476523.4604192,0,0.23663330078125,0.12493896484375,0.12554931640625,9.412213740458014,-146.5648854961832,-25.412213740458014,516.6972477064221,-33.48623853211009,-9.541284403669724,,
1760476523.481345,0,0.23675537109375,0.12493896484375,0.12542724609375,9.435114503816793,-136.793893129771,-23.458015267175572,399.26605504587155,-33.6697247706422,-9.357798165137615,,
1760476523.4918776,0,0.2369384765625,0.12481689453125,0.12542724609375,9.404580152671755,-130.93129770992365,-56.6793893129771,540.1834862385322,-33.39449541284404,-9.44954128440367,,
1760476523.5131166,0,0.237060546875,0.1248779296875,0.12548828125,9.412213740458014,-150.4732824427481,-5.870229007633588,610.6422018348624,-33.211009174311926,-9.26605504587156,,
1760476523.544793,0,0.23724365234375,0.1248779296875,0.12548828125,9.427480916030534,-158.29007633587787,-31.27480916030534,446.2385321100918,-33.211009174311926,-9.26605504587156,,
1760476523.5552583,0,0.23736572265625,0.12481689453125,0.1256103515625,9.419847328244275,-160.24427480916032,-43.0,728.0733944954129,-33.76146788990826,-9.44954128440367,,
1760476523.5764432,0,0.237548828125,0.12493896484375,0.12554931640625,9.412213740458014,-121.16030534351145,-33.229007633587784,728.0733944954129,-34.403669724770644,-8.990825688073395,,
1760476523.6084585,0,0.2376708984375,0.1248779296875,0.12542724609375,9.435114503816793,-146.5648854961832,-50.81679389312977,1150.8256880733945,-33.6697247706422,-9.26605504587156,,
1760476523.6191554,0,0.23785400390625,0.12481689453125,0.12542724609375,9.435114503816793,-158.29007633587787,-19.549618320610687,516.6972477064221,-33.11926605504587,-9.541284403669724,,
1760476523.640187,0,0.23797607421875,0.12493896484375,0.1256103515625,9.412213740458014,-144.61068702290078,-17.595419847328245,962.9357798165138,-33.11926605504587,-9.44954128440367,,
1760476523.6509125,0,0.2381591796875,0.124755859375,0.12542724609375,9.419847328244275,-168.06106870229007,-19.549618320610687,469.72477064220186,-33.39449541284404,-9.44954128440367,,
1760476523.6724107,0,0.23828125,0.12481689453125,0.12548828125,9.419847328244275,-152.42748091603053,-31.27480916030534,892.4770642201836,-33.39449541284404,-9.63302752293578,,
1760476523.7043226,0,0.23846435546875,0.12481689453125,0.12548828125,9.435114503816793,-150.4732824427481,-29.3206106870229,399.26605504587155,-33.30275229357798,-9.44954128440367,,
1760476523.7148738,0,0.23858642578125,0.1248779296875,0.12554931640625,9.435114503816793,-134.83969465648855,-25.412213740458014,845.5045871559633,-33.48623853211009,-9.63302752293578,,
1760476523.7359462,0,0.23876953125,0.1248779296875,0.12548828125,9.427480916030534,-152.42748091603053,-60.587786259541986,868.9908256880734,-32.84403669724771,-9.08256880733945,,
1760476523.7467265,0,0.2388916015625,0.1248779296875,0.12548828125,9.412213740458014,-125.06870229007633,-52.770992366412216,681.1009174311927,-33.11926605504587,-9.44954128440367,,
1760476523.768093,0,0.23907470703125,0.12493896484375,0.12542724609375,9.419847328244275,-146.5648854961832,-50.81679389312977,634.1284403669725,-33.30275229357798,-9.44954128440367,,
1760476523.789207,0,0.23919677734375,0.12493896484375,0.12542724609375,9.404580152671755,-171.96946564885496,-29.3206106870229,281.8348623853211,-32.93577981651376,-9.08256880733945,,
1760476523.7996716,0,0.2393798828125,0.12481689453125,0.12548828125,9.404580152671755,-154.38167938931298,-39.091603053435115,610.6422018348624,-33.85321100917431,-9.44954128440367,,
1760476523.8207505,0,0.239501953125,0.12481689453125,0.12542724609375,9.412213740458014,-171.96946564885496,-44.954198473282446,892.4770642201836,-34.403669724770644,-9.724770642201836,,
1760476523.831591,0,0.23968505859375,0.12481689453125,0.1256103515625,9.427480916030534,-168.06106870229007,-29.3206106870229,634.1284403669725,-33.211009174311926,-9.541284403669724,,
1760476523.8630614,0,0.23980712890625,0.1248779296875,0.1253662109375,9.419847328244275,-119.20610687022901,-25.412213740458014,587.1559633027523,-33.6697247706422,-9.357798165137615,,
1760476523.8950298,0,0.239990234375,0.1248779296875,0.12548828125,9.412213740458014,-136.793893129771,9.770992366412214,399.26605504587155,-33.6697247706422,-9.908256880733946,,
1760476523.905739,0,0.2401123046875,0.12481689453125,0.1253662109375,9.419847328244275,-134.83969465648855,-21.50381679389313,657.6146788990826,-33.39449541284404,-10.0,,
1760476523.9267108,0,0.24029541015625,0.12481689453125,0.12530517578125,9.435114503816793,-144.61068702290078,-39.091603053435115,798.5321100917431,-34.12844036697248,-9.357798165137615,,
1760476523.9581385,0,0.24041748046875,0.12481689453125,0.12554931640625,9.419847328244275,-150.4732824427481,-44.954198473282446,681.1009174311927,-33.94495412844037,-9.724770642201836,,
1760476523.9688954,0,0.2406005859375,0.12481689453125,0.12542724609375,9.427480916030534,-146.5648854961832,-5.870229007633588,892.4770642201836,-33.30275229357798,-9.174311926605505,,
1760476523.9898808,0,0.24072265625,0.12481689453125,0.12548828125,9.404580152671755,-150.4732824427481,-11.732824427480915,892.4770642201836,-32.75229357798165,-9.44954128440367,,
1760476524.0004847,0,0.24090576171875,0.12481689453125,0.12542724609375,9.412213740458014,-154.38167938931298,-56.6793893129771,868.9908256880734,-33.211009174311926,-10.366972477064222,,
1760476524.0113244,0,0.24102783203125,0.124755859375,0.12548828125,9.427480916030534,-152.42748091603053,-37.13740458015267,1033.3944954128442,-33.11926605504587,-9.44954128440367,,
1760476524.043173,0,0.2412109375,0.1248779296875,0.12542724609375,9.412213740458014,-134.83969465648855,-62.541984732824424,728.0733944954129,-34.403669724770644,-8.807339449541285,,
1760476524.0538507,0,0.2413330078125,0.1248779296875,0.12542724609375,9.427480916030534,-144.61068702290078,-52.770992366412216,986.4220183486239,-33.211009174311926,-9.541284403669724,,
1760476524.0750475,0,0.24151611328125,0.12493896484375,0.12548828125,9.412213740458014,-140.70229007633588,-27.366412213740457,892.4770642201836,-33.57798165137615,-9.357798165137615,,
1760476524.1170695,0,0.24163818359375,0.1248779296875,0.12554931640625,9.427480916030534,-160.24427480916032,-11.732824427480915,751.559633027523,-32.6605504587156,-9.63302752293578,,
1760476524.1279414,0,0.2418212890625,0.12481689453125,0.12542724609375,9.427480916030534,-136.793893129771,-66.45038167938931,563.6697247706422,-33.02752293577982,-9.357798165137615,,
1760476524.1493936,0,0.241943359375,0.12493896484375,0.12542724609375,9.419847328244275,-148.51908396946564,-52.770992366412216,751.559633027523,-33.30275229357798,-9.724770642201836,,
1760476524.1809926,0,0.24212646484375,0.12481689453125,0.12542724609375,9.427480916030534,-140.70229007633588,-52.770992366412216,587.1559633027523,-33.48623853211009,-9.63302752293578,,
1760476524.1918218,0,0.24224853515625,0.12481689453125,0.12548828125,9.412213740458014,-164.15267175572518,-27.366412213740457,892.4770642201836,-33.211009174311926,-9.908256880733946,,
1760476524.2025385,0,0.242431640625,0.12481689453125,0.12548828125,9.412213740458014,-146.5648854961832,-33.229007633587784,986.4220183486239,-33.48623853211009,-9.357798165137615,,
1760476524.2132232,0,0.2425537109375,0.1248779296875,0.1253662109375,9.427480916030534,-125.06870229007633,-43.0,493.2110091743119,-33.11926605504587,-10.0,,
1760476524.2450192,0,0.24273681640625,0.1248779296875,0.12542724609375,9.404580152671755,-130.93129770992365,-31.27480916030534,634.1284403669725,-33.39449541284404,-9.724770642201836,,
1760476524.2558067,0,0.24285888671875,0.12481689453125,0.12554931640625,9.435114503816793,-140.70229007633588,-25.412213740458014,775.045871559633,-33.11926605504587,-9.26605504587156,,
1760476524.2771292,0,0.2430419921875,0.1248779296875,0.12554931640625,9.427480916030534,-125.06870229007633,-15.641221374045802,939.4495412844037,-33.39449541284404,-8.807339449541285,,
1760476524.2877753,0,0.2431640625,0.12493896484375,0.12548828125,9.419847328244275,-132.8854961832061,-21.50381679389313,915.9633027522937,-33.39449541284404,-9.26605504587156,,
1760476524.308859,0,0.24334716796875,0.12469482421875,0.1253662109375,9.427480916030534,-148.51908396946564,-37.13740458015267,845.5045871559633,-33.11926605504587,-9.63302752293578,,
1760476524.340396,0,0.24346923828125,0.12481689453125,0.12548828125,9.404580152671755,-127.02290076335878,-31.27480916030534,422.7522935779817,-33.11926605504587,-9.44954128440367,,
1760476524.3510633,0,0.24365234375,0.1248779296875,0.1256103515625,9.419847328244275,-160.24427480916032,-44.954198473282446,328.8073394495413,-33.30275229357798,-9.81651376146789,,
1760476524.3719199,0,0.2437744140625,0.12493896484375,0.12548828125,9.435114503816793,-128.9770992366412,-25.412213740458014,657.6146788990826,-33.57798165137615,-9.541284403669724,,
1760476524.4028625,0,0.24395751953125,0.12493896484375,0.12548828125,9.419847328244275,-166.10687022900763,-31.27480916030534,422.7522935779817,-32.93577981651376,-9.44954128440367,,
1760476524.4133725,0,0.24407958984375,0.1248779296875,0.12548828125,9.419847328244275,-136.793893129771,-13.687022900763358,775.045871559633,-33.76146788990826,-9.44954128440367,,
1760476524.4346142,0,0.2442626953125,0.12493896484375,0.1253662109375,9.404580152671755,-134.83969465648855,-33.229007633587784,775.045871559633,-32.75229357798165,-9.541284403669724,,
1760476524.4664772,0,0.244384765625,0.12493896484375,0.12542724609375,9.412213740458014,-148.51908396946564,-72.31297709923665,493.2110091743119,-32.84403669724771,-9.357798165137615,,
1760476524.477276,0,0.24456787109375,0.1248779296875,0.12542724609375,9.412213740458014,-138.74809160305344,-1.9618320610687023,516.6972477064221,-33.6697247706422,-9.44954128440367,,
1760476524.4984913,0,0.24468994140625,0.12493896484375,0.12554931640625,9.427480916030534,-140.70229007633588,-72.31297709923665,775.045871559633,-33.211009174311926,-9.357798165137615,,
1760476524.5089903,0,0.244873046875,0.1248779296875,0.12548828125,9.427480916030534,-146.5648854961832,-3.9160305343511452,375.7798165137615,-33.211009174311926,-9.357798165137615,,
1760476524.5299685,0,0.2449951171875,0.1248779296875,0.12542724609375,9.396946564885496,-119.20610687022901,-68.40458015267176,728.0733944954129,-32.84403669724771,-9.44954128440367,,
1760476524.5408509,0,0.24517822265625,0.124755859375,0.12542724609375,9.419847328244275,-134.83969465648855,-39.091603053435115,540.1834862385322,-32.93577981651376,-9.541284403669724,,
1760476524.5622025,0,0.24530029296875,0.12493896484375,0.12554931640625,9.435114503816793,-158.29007633587787,-39.091603053435115,728.0733944954129,-33.02752293577982,-9.357798165137615,,
1760476524.5935516,0,0.2454833984375,0.1248779296875,0.12542724609375,9.435114503816793,-171.96946564885496,-27.366412213740457,822.0183486238533,-32.75229357798165,-9.724770642201836,,
1760476524.6040661,0,0.24560546875,0.12469482421875,0.1253662109375,9.419847328244275,-158.29007633587787,9.770992366412214,822.0183486238533,-33.85321100917431,-9.63302752293578,,
1760476524.6251786,0,0.24578857421875,0.124755859375,0.1253662109375,9.435114503816793,-160.24427480916032,0.0,610.6422018348624,-33.76146788990826,-9.08256880733945,,
1760476524.6566863,0,0.24591064453125,0.1248779296875,0.12542724609375,9.404580152671755,-125.06870229007633,-9.778625954198473,563.6697247706422,-33.02752293577982,-9.81651376146789,,
1760476524.6674192,0,0.24609375,0.1248779296875,0.12548828125,9.412213740458014,-138.74809160305344,-68.40458015267176,681.1009174311927,-32.56880733944954,-9.44954128440367,,
1760476524.6884656,0,0.2462158203125,0.12481689453125,0.12548828125,9.404580152671755,-117.25190839694656,-11.732824427480915,657.6146788990826,-33.48623853211009,-9.541284403669724,,
1760476524.699009,0,0.24639892578125,0.12481689453125,0.12542724609375,9.404580152671755,-144.61068702290078,-66.45038167938931,892.4770642201836,-33.30275229357798,-9.63302752293578,,
1760476524.7201087,0,0.24652099609375,0.1248779296875,0.1256103515625,9.419847328244275,-154.38167938931298,-48.86259541984733,704.5871559633028,-33.94495412844037,-9.44954128440367,,
1760476524.752063,0,0.2467041015625,0.12493896484375,0.12542724609375,9.419847328244275,-136.793893129771,-60.587786259541986,704.5871559633028,-33.76146788990826,-9.357798165137615,,
1760476524.7628498,0,0.246826171875,0.12493896484375,0.12548828125,9.427480916030534,-132.8854961832061,-21.50381679389313,516.6972477064221,-33.30275229357798,-9.44954128440367,,
1760476524.7838979,0,0.24700927734375,0.124755859375,0.12548828125,9.404580152671755,-136.793893129771,-13.687022900763358,681.1009174311927,-33.39449541284404,-9.63302752293578,,
1760476524.815343,0,0.24713134765625,0.12481689453125,0.12554931640625,9.427480916030534,-150.4732824427481,-3.9160305343511452,1009.908256880734,-32.93577981651376,-9.81651376146789,,
1760476524.8261578,0,0.247314453125,0.12493896484375,0.12548828125,9.419847328244275,-134.83969465648855,-43.0,845.5045871559633,-33.30275229357798,-9.26605504587156,,
1760476524.8473754,0,0.2474365234375,0.12493896484375,0.1256103515625,9.419847328244275,-142.65648854961833,-21.50381679389313,610.6422018348624,-33.30275229357798,-9.541284403669724,,
1760476524.8577988,0,0.24761962890625,0.12493896484375,0.12542724609375,9.419847328244275,-140.70229007633588,-21.50381679389313,657.6146788990826,-33.6697247706422,-9.908256880733946,,
1760476524.8789914,0,0.24774169921875,0.1248779296875,0.12542724609375,9.427480916030534,-173.9236641221374,-41.045801526717554,422.7522935779817,-33.211009174311926,-9.63302752293578,,
1760476524.910987,0,0.2479248046875,0.12493896484375,0.12542724609375,9.396946564885496,-148.51908396946564,-0.007633587786259542,751.559633027523,-33.02752293577982,-9.26605504587156,,
1760476524.921795,0,0.248046875,0.12481689453125,0.12542724609375,9.412213740458014,-136.793893129771,-25.412213740458014,634.1284403669725,-33.11926605504587,-9.541284403669724,,
1760476524.9431233,0,0.24822998046875,0.1248779296875,0.12542724609375,9.419847328244275,-146.5648854961832,-62.541984732824424,446.2385321100918,-32.93577981651376,-9.541284403669724,,
1760476524.9645085,0,0.24835205078125,0.1248779296875,0.12548828125,9.419847328244275,-125.06870229007633,-56.6793893129771,634.1284403669725,-33.48623853211009,-9.724770642201836,,
1760476524.9752507,0,0.24853515625,0.1248779296875,0.12542724609375,9.412213740458014,-162.19847328244273,-31.27480916030534,516.6972477064221,-32.93577981651376,-9.26605504587156,,
1760476524.9964166,0,0.2486572265625,0.124755859375,0.1253662109375,9.412213740458014,-128.9770992366412,-33.229007633587784,587.1559633027523,-33.39449541284404,-8.89908256880734,,
1760476525.0281837,0,0.24884033203125,0.12493896484375,0.1253662109375,9.412213740458014,-128.9770992366412,-48.86259541984733,493.2110091743119,-33.48623853211009,-9.26605504587156,,
1760476525.038808,0,0.24896240234375,0.12493896484375,0.12548828125,9.427480916030534,-170.01526717557252,-21.50381679389313,328.8073394495413,-33.48623853211009,-9.08256880733945,,
1760476525.0597358,0,0.2491455078125,0.12481689453125,0.12542724609375,9.412213740458014,-158.29007633587787,-19.549618320610687,657.6146788990826,-33.94495412844037,-8.715596330275229,,
1760476525.0906978,0,0.249267578125,0.12481689453125,0.1256103515625,9.419847328244275,-168.06106870229007,-29.3206106870229,634.1284403669725,-33.02752293577982,-9.08256880733945,,
1760476525.101083,0,0.24945068359375,0.12481689453125,0.1253662109375,9.419847328244275,-146.5648854961832,-54.725190839694655,822.0183486238533,-32.93577981651376,-9.44954128440367,,
1760476525.1219175,0,0.24957275390625,0.12493896484375,0.12542724609375,9.427480916030534,-125.06870229007633,-46.908396946564885,516.6972477064221,-33.57798165137615,-9.44954128440367,,
1760476525.1323736,0,0.249755859375,0.1248779296875,0.12548828125,9.427480916030534,-154.38167938931298,-56.6793893129771,657.6146788990826,-33.39449541284404,-8.89908256880734,,
1760476525.1532052,0,0.2498779296875,0.12481689453125,0.12542724609375,9.419847328244275,-152.42748091603053,-46.908396946564885,587.1559633027523,-33.6697247706422,-9.81651376146789,,
1760476525.1637576,0,0.25006103515625,0.1248779296875,0.12542724609375,9.419847328244275,-144.61068702290078,-31.27480916030534,610.6422018348624,-32.93577981651376,-9.724770642201836,,
1760476525.1850398,0,0.25018310546875,0.12493896484375,0.12554931640625,9.404580152671755,-173.9236641221374,-29.3206106870229,728.0733944954129,-33.211009174311926,-9.63302752293578,,
1760476525.2165174,0,0.2503662109375,0.124755859375,0.1253662109375,9.435114503816793,-148.51908396946564,-5.870229007633588,587.1559633027523,-33.76146788990826,-8.990825688073395,,
1760476525.2270782,0,0.25048828125,0.1248779296875,0.12542724609375,9.427480916030534,-142.65648854961833,-15.641221374045802,493.2110091743119,-33.48623853211009,-10.0,,
1760476525.248231,0,0.25067138671875,0.12481689453125,0.125244140625,9.404580152671755,-105.52671755725191,-48.86259541984733,610.6422018348624,-34.03669724770642,-9.541284403669724,,
1760476525.2800748,0,0.25079345703125,0.12481689453125,0.1253662109375,9.427480916030534,-140.70229007633588,-44.954198473282446,704.5871559633028,-32.477064220183486,-9.26605504587156,,
1760476525.311889,0,0.2509765625,0.1248779296875,0.12548828125,9.404580152671755,-127.02290076335878,-37.13740458015267,681.1009174311927,-33.211009174311926,-9.724770642201836,,
1760476525.3224654,0,0.2510986328125,0.1248779296875,0.12542724609375,9.412213740458014,-170.01526717557252,-44.954198473282446,798.5321100917431,-33.11926605504587,-9.541284403669724,,
1760476525.343986,0,0.25128173828125,0.1248779296875,0.12554931640625,9.442748091603054,-109.43511450381679,-17.595419847328245,728.0733944954129,-33.76146788990826,-9.357798165137615,,
1760476525.3545973,0,0.25140380859375,0.12493896484375,0.12548828125,9.412213740458014,-103.57251908396947,-17.595419847328245,281.8348623853211,-33.57798165137615,-9.541284403669724,,
1760476525.3755698,0,0.2515869140625,0.12481689453125,0.12548828125,9.412213740458014,-158.29007633587787,-43.0,164.40366972477065,-33.02752293577982,-9.44954128440367,,
1760476525.3861866,0,0.251708984375,0.12481689453125,0.12548828125,9.412213740458014,-160.24427480916032,-33.229007633587784,211.37614678899084,-33.57798165137615,-9.724770642201836,,
1760476525.4072676,0,0.25189208984375,0.1248779296875,0.1253662109375,9.419847328244275,-168.06106870229007,-39.091603053435115,399.26605504587155,-32.75229357798165,-9.357798165137615,,
1760476525.4179916,0,0.25201416015625,0.124755859375,0.12548828125,9.412213740458014,-179.78625954198472,-37.13740458015267,563.6697247706422,-32.93577981651376,-9.541284403669724,,
1760476525.44938,0,0.252197265625,0.12481689453125,0.1253662109375,9.412213740458014,-140.70229007633588,-64.49618320610686,587.1559633027523,-33.39449541284404,-9.44954128440367,,
1760476525.4707692,0,0.2523193359375,0.1248779296875,0.12542724609375,9.419847328244275,-148.51908396946564,-19.549618320610687,775.045871559633,-33.94495412844037,-9.724770642201836,,
1760476525.481582,0,0.25250244140625,0.12493896484375,0.12554931640625,9.419847328244275,-148.51908396946564,-33.229007633587784,587.1559633027523,-33.94495412844037,-9.174311926605505,,
1760476525.513346,0,0.25262451171875,0.1248779296875,0.12548828125,9.435114503816793,-132.8854961832061,-19.549618320610687,681.1009174311927,-33.11926605504587,-9.724770642201836,,
1760476525.5238032,0,0.2528076171875,0.12493896484375,0.1253662109375,9.419847328244275,-156.33587786259542,-46.908396946564885,587.1559633027523,-33.39449541284404,-9.541284403669724,,
1760476525.5343924,0,0.2529296875,0.124755859375,0.12548828125,9.412213740458014,-164.15267175572518,-37.13740458015267,681.1009174311927,-33.11926605504587,-9.908256880733946,,
1760476525.5660946,0,0.25311279296875,0.1248779296875,0.12548828125,9.412213740458014,-113.34351145038168,-29.3206106870229,399.26605504587155,-33.39449541284404,-9.44954128440367,,
1760476525.576852,0,0.25323486328125,0.1248779296875,0.12542724609375,9.419847328244275,-132.8854961832061,-41.045801526717554,211.37614678899084,-33.76146788990826,-8.990825688073395,,
1760476525.5980728,0,0.25341796875,0.1248779296875,0.1253662109375,9.419847328244275,-162.19847328244273,-39.091603053435115,704.5871559633028,-33.85321100917431,-9.44954128440367,,
1760476525.6299899,0,0.2535400390625,0.12481689453125,0.12548828125,9.412213740458014,-144.61068702290078,-31.27480916030534,540.1834862385322,-33.39449541284404,-9.724770642201836,,
1760476525.6619534,0,0.25372314453125,0.12481689453125,0.1253662109375,9.427480916030534,-130.93129770992365,-17.595419847328245,822.0183486238533,-33.02752293577982,-9.541284403669724,,
1760476525.6724656,0,0.25384521484375,0.12481689453125,0.12542724609375,9.419847328244275,-117.25190839694656,-44.954198473282446,681.1009174311927,-33.39449541284404,-9.541284403669724,,
1760476525.6934822,0,0.2540283203125,0.12493896484375,0.12548828125,9.404580152671755,-146.5648854961832,-23.458015267175572,399.26605504587155,-33.48623853211009,-9.63302752293578,,
1760476525.7042742,0,0.254150390625,0.124755859375,0.12554931640625,9.442748091603054,-130.93129770992365,-33.229007633587784,634.1284403669725,-33.6697247706422,-9.724770642201836,,
1760476525.7254772,0,0.25433349609375,0.1248779296875,0.12548828125,9.412213740458014,-125.06870229007633,-44.954198473282446,587.1559633027523,-33.30275229357798,-8.990825688073395,,
1760476525.7359529,0,0.25445556640625,0.1248779296875,0.12542724609375,9.412213740458014,-132.8854961832061,-13.687022900763358,469.72477064220186,-32.6605504587156,-9.26605504587156,,
1760476525.7571363,0,0.254638671875,0.12481689453125,0.12554931640625,9.427480916030534,-105.52671755725191,-43.0,892.4770642201836,-33.39449541284404,-9.63302752293578,,
1760476525.789052,0,0.2547607421875,0.12493896484375,0.12548828125,9.419847328244275,-130.93129770992365,-5.870229007633588,305.3211009174312,-32.84403669724771,-9.724770642201836,,
1760476525.7998087,0,0.25494384765625,0.1248779296875,0.12554931640625,9.419847328244275,-144.61068702290078,-58.63358778625954,775.045871559633,-33.211009174311926,-9.357798165137615,,
1760476525.8212316,0,0.25506591796875,0.12481689453125,0.12548828125,9.427480916030534,-138.74809160305344,-9.778625954198473,751.559633027523,-33.76146788990826,-8.89908256880734,,
1760476525.852767,0,0.2552490234375,0.1248779296875,0.12548828125,9.419847328244275,-138.74809160305344,-25.412213740458014,375.7798165137615,-33.211009174311926,-9.81651376146789,,
1760476525.8634827,0,0.25537109375,0.12481689453125,0.12554931640625,9.427480916030534,-152.42748091603053,-19.549618320610687,516.6972477064221,-33.85321100917431,-9.724770642201836,,
1760476525.8849437,0,0.25555419921875,0.124755859375,0.1253662109375,9.419847328244275,-144.61068702290078,-39.091603053435115,516.6972477064221,-34.03669724770642,-9.63302752293578,,
1760476525.8956037,0,0.25567626953125,0.1248779296875,0.1256103515625,9.419847328244275,-144.61068702290078,-23.458015267175572,775.045871559633,-32.56880733944954,-9.541284403669724,,
1760476525.9274824,0,0.255859375,0.1248779296875,0.12542724609375,9.404580152671755,-128.9770992366412,-35.18320610687023,540.1834862385322,-32.93577981651376,-9.08256880733945,,
1760476525.9380946,0,0.2559814453125,0.12481689453125,0.12530517578125,9.412213740458014,-142.65648854961833,-44.954198473282446,610.6422018348624,-33.39449541284404,-9.63302752293578,,
1760476525.959494,0,0.25616455078125,0.125,0.12548828125,9.404580152671755,-173.9236641221374,-44.954198473282446,868.9908256880734,-33.76146788990826,-9.357798165137615,,
1760476525.9911253,0,0.25628662109375,0.12493896484375,0.12554931640625,9.412213740458014,-154.38167938931298,-46.908396946564885,868.9908256880734,-32.75229357798165,-10.0,,
1760476526.0015945,0,0.2564697265625,0.1248779296875,0.1256103515625,9.419847328244275,-148.51908396946564,-41.045801526717554,399.26605504587155,-32.75229357798165,-9.63302752293578,,
1760476526.0226257,0,0.256591796875,0.12493896484375,0.1253662109375,9.419847328244275,-136.793893129771,-64.49618320610686,352.2935779816514,-33.57798165137615,-9.541284403669724,,
1760476526.054499,0,0.25677490234375,0.12481689453125,0.12542724609375,9.427480916030534,-130.93129770992365,-37.13740458015267,610.6422018348624,-33.6697247706422,-9.81651376146789,,
1760476526.0651321,0,0.25689697265625,0.1248779296875,0.1253662109375,9.419847328244275,-162.19847328244273,-13.687022900763358,728.0733944954129,-34.03669724770642,-9.541284403669724,,
1760476526.0863695,0,0.257080078125,0.12481689453125,0.12548828125,9.404580152671755,-166.10687022900763,-29.3206106870229,422.7522935779817,-33.11926605504587,-8.89908256880734,,
1760476526.0971396,0,0.2572021484375,0.1248779296875,0.12542724609375,9.419847328244275,-175.87786259541986,-37.13740458015267,258.34862385321105,-33.39449541284404,-9.63302752293578,,
1760476526.1183097,0,0.25738525390625,0.1248779296875,0.12548828125,9.396946564885496,-117.25190839694656,-62.541984732824424,563.6697247706422,-32.75229357798165,-9.63302752293578,,
1760476526.1287854,0,0.25750732421875,0.1248779296875,0.12548828125,9.427480916030534,-156.33587786259542,-15.641221374045802,516.6972477064221,-33.30275229357798,-9.63302752293578,,
1760476526.1498327,0,0.2576904296875,0.1248779296875,0.12548828125,9.412213740458014,-158.29007633587787,-27.366412213740457,587.1559633027523,-32.93577981651376,-9.357798165137615,,
1760476526.1711829,0,0.2578125,0.12481689453125,0.125244140625,9.427480916030534,-121.16030534351145,-29.3206106870229,845.5045871559633,-33.6697247706422,-9.81651376146789,,
1760476526.1817997,0,0.25799560546875,0.124755859375,0.12548828125,9.412213740458014,-125.06870229007633,-39.091603053435115,751.559633027523,-33.94495412844037,-8.623853211009175,,
1760476526.2132285,0,0.25811767578125,0.1248779296875,0.12548828125,9.412213740458014,-140.70229007633588,-60.587786259541986,915.9633027522937,-33.02752293577982,-9.44954128440367,,
1760476526.234413,0,0.25830078125,0.1248779296875,0.12542724609375,9.404580152671755,-158.29007633587787,-48.86259541984733,704.5871559633028,-33.211009174311926,-10.275229357798166,,
1760476526.2451694,0,0.2584228515625,0.12493896484375,0.1253662109375,9.419847328244275,-158.29007633587787,-44.954198473282446,775.045871559633,-33.11926605504587,-9.541284403669724,,
1760476526.2662685,0,0.25860595703125,0.1248779296875,0.1256103515625,9.427480916030534,-158.29007633587787,-46.908396946564885,775.045871559633,-33.94495412844037,-8.807339449541285,,
1760476526.276974,0,0.25872802734375,0.1248779296875,0.12554931640625,9.412213740458014,-146.5648854961832,-41.045801526717554,798.5321100917431,-33.48623853211009,-9.174311926605505,,
1760476526.2984338,0,0.2589111328125,0.12481689453125,0.12548828125,9.419847328244275,-156.33587786259542,-7.824427480916031,798.5321100917431,-33.39449541284404,-9.81651376146789,,
1760476526.3301418,0,0.259033203125,0.1248779296875,0.1253662109375,9.419847328244275,-127.02290076335878,-48.86259541984733,728.0733944954129,-33.211009174311926,-9.63302752293578,,
1760476526.3405938,0,0.25921630859375,0.124755859375,0.12548828125,9.419847328244275,-183.6946564885496,-37.13740458015267,1033.3944954128442,-32.38532110091743,-9.63302752293578,,
1760476526.3617356,0,0.25933837890625,0.12481689453125,0.12542724609375,9.427480916030534,-130.93129770992365,0.0,516.6972477064221,-33.211009174311926,-9.541284403669724,,
1760476526.3935075,0,0.259521484375,0.1248779296875,0.12548828125,9.412213740458014,-128.9770992366412,-37.13740458015267,422.7522935779817,-32.93577981651376,-8.990825688073395,,
1760476526.4042935,0,0.2596435546875,0.1248779296875,0.12542724609375,9.412213740458014,-138.74809160305344,-35.18320610687023,704.5871559633028,-33.6697247706422,-9.174311926605505,,
1760476526.425484,0,0.25982666015625,0.1248779296875,0.12542724609375,9.435114503816793,-130.93129770992365,-43.0,469.72477064220186,-34.03669724770642,-8.990825688073395,,
1760476526.4569232,0,0.25994873046875,0.12481689453125,0.1253662109375,9.419847328244275,-146.5648854961832,-66.45038167938931,704.5871559633028,-32.84403669724771,-9.81651376146789,,
1760476526.4677067,0,0.2601318359375,0.1248779296875,0.12542724609375,9.404580152671755,-138.74809160305344,-29.3206106870229,939.4495412844037,-33.30275229357798,-9.44954128440367,,
1760476526.4890602,0,0.26025390625,0.124755859375,0.12542724609375,9.412213740458014,-156.33587786259542,-11.732824427480915,469.72477064220186,-33.48623853211009,-9.63302752293578,,
1760476526.4998202,0,0.26043701171875,0.1248779296875,0.12542724609375,9.396946564885496,-156.33587786259542,-13.687022900763358,751.559633027523,-33.39449541284404,-9.44954128440367,,
1760476526.5211086,0,0.26055908203125,0.1248779296875,0.12542724609375,9.419847328244275,-138.74809160305344,-15.641221374045802,728.0733944954129,-33.6697247706422,-9.357798165137615,,
1760476526.552991,0,0.2607421875,0.1248779296875,0.12554931640625,9.435114503816793,-127.02290076335878,5.862595419847328,610.6422018348624,-33.30275229357798,-9.81651376146789,,
1760476526.5637527,0,0.2608642578125,0.1248779296875,0.12548828125,9.404580152671755,-177.8320610687023,-39.091603053435115,422.7522935779817,-33.11926605504587,-9.63302752293578,,
1760476526.5850048,0,0.26104736328125,0.12493896484375,0.12548828125,9.419847328244275,-105.52671755725191,-48.86259541984733,822.0183486238533,-33.211009174311926,-9.541284403669724,,
1760476526.6168053,0,0.26116943359375,0.12481689453125,0.12542724609375,9.427480916030534,-136.793893129771,-60.587786259541986,751.559633027523,-33.48623853211009,-9.724770642201836,,
1760476526.6275656,0,0.2613525390625,0.1248779296875,0.12548828125,9.419847328244275,-175.87786259541986,-37.13740458015267,469.72477064220186,-33.211009174311926,-9.357798165137615,,
1760476526.6383257,0,0.261474609375,0.12493896484375,0.12548828125,9.412213740458014,-128.9770992366412,-37.13740458015267,681.1009174311927,-33.85321100917431,-9.26605504587156,,
1760476526.669953,0,0.26165771484375,0.12493896484375,0.12548828125,9.419847328244275,-150.4732824427481,-29.3206106870229,704.5871559633028,-33.6697247706422,-9.08256880733945,,
1760476526.6805525,0,0.26177978515625,0.12481689453125,0.12542724609375,9.419847328244275,-150.4732824427481,-35.18320610687023,587.1559633027523,-33.11926605504587,-9.174311926605505,,
1760476526.7017605,0,0.261962890625,0.12493896484375,0.1253662109375,9.435114503816793,-144.61068702290078,-9.778625954198473,681.1009174311927,-33.211009174311926,-9.81651376146789,,
1760476526.712555,0,0.2620849609375,0.124755859375,0.12542724609375,9.419847328244275,-134.83969465648855,-35.18320610687023,751.559633027523,-32.75229357798165,-9.08256880733945,,
1760476526.7335913,0,0.26226806640625,0.12493896484375,0.12542724609375,9.419847328244275,-154.38167938931298,-62.541984732824424,610.6422018348624,-33.48623853211009,-9.63302752293578,,
1760476526.7442982,0,0.26239013671875,0.1248779296875,0.12542724609375,9.419847328244275,-115.29770992366412,-50.81679389312977,704.5871559633028,-33.57798165137615,-9.724770642201836,,
1760476526.7756422,0,0.2625732421875,0.12481689453125,0.12548828125,9.404580152671755,-128.9770992366412,-21.50381679389313,798.5321100917431,-33.48623853211009,-8.89908256880734,,
1760476526.80752,0,0.2626953125,0.12481689453125,0.12542724609375,9.427480916030534,-173.9236641221374,-60.587786259541986,634.1284403669725,-33.211009174311926,-9.63302752293578,,
1760476526.8180563,0,0.26287841796875,0.1248779296875,0.12542724609375,9.412213740458014,-175.87786259541986,-21.50381679389313,399.26605504587155,-32.6605504587156,-8.807339449541285,,
1760476526.8390682,0,0.26300048828125,0.12481689453125,0.12542724609375,9.412213740458014,-148.51908396946564,-27.366412213740457,446.2385321100918,-33.39449541284404,-9.63302752293578,,
1760476526.849835,0,0.26318359375,0.12493896484375,0.12554931640625,9.419847328244275,-148.51908396946564,-39.091603053435115,563.6697247706422,-33.85321100917431,-9.541284403669724,,
1760476526.8710854,0,0.2633056640625,0.12493896484375,0.12542724609375,9.419847328244275,-158.29007633587787,-11.732824427480915,610.6422018348624,-33.85321100917431,-9.174311926605505,,
1760476526.9028895,0,0.26348876953125,0.124755859375,0.12548828125,9.442748091603054,-113.34351145038168,5.862595419847328,681.1009174311927,-33.211009174311926,-10.18348623853211,,
1760476526.9136057,0,0.26361083984375,0.1248779296875,0.12548828125,9.435114503816793,-154.38167938931298,-7.824427480916031,868.9908256880734,-33.48623853211009,-9.26605504587156,,
1760476526.9350352,0,0.2637939453125,0.125,0.12542724609375,9.419847328244275,-142.65648854961833,-50.81679389312977,446.2385321100918,-33.11926605504587,-9.174311926605505,,
1760476526.9665368,0,0.263916015625,0.1248779296875,0.12548828125,9.419847328244275,-134.83969465648855,-41.045801526717554,657.6146788990826,-33.02752293577982,-9.63302752293578,,
1760476526.9773123,0,0.26409912109375,0.1248779296875,0.1253662109375,9.404580152671755,-134.83969465648855,-48.86259541984733,798.5321100917431,-33.211009174311926,-9.63302752293578,,
1760476526.9985769,0,0.26422119140625,0.12481689453125,0.1253662109375,9.419847328244275,-146.5648854961832,-56.6793893129771,892.4770642201836,-33.57798165137615,-9.63302752293578,,
1760476527.0093267,0,0.264404296875,0.1248779296875,0.12554931640625,9.404580152671755,-152.42748091603053,-43.0,822.0183486238533,-33.57798165137615,-9.81651376146789,,
1760476527.0199583,0,0.2645263671875,0.12481689453125,0.12542724609375,9.396946564885496,-148.51908396946564,-35.18320610687023,281.8348623853211,-33.48623853211009,-9.63302752293578,,
1760476527.05158,0,0.26470947265625,0.1248779296875,0.1253662109375,9.419847328244275,-134.83969465648855,-48.86259541984733,634.1284403669725,-32.84403669724771,-9.724770642201836,,
1760476527.0623472,0,0.26483154296875,0.1248779296875,0.12542724609375,9.419847328244275,-152.42748091603053,7.816793893129771,258.34862385321105,-33.48623853211009,-9.81651376146789,,
1760476527.0837684,0,0.2650146484375,0.1248779296875,0.12548828125,9.419847328244275,-164.15267175572518,-25.412213740458014,469.72477064220186,-34.403669724770644,-9.357798165137615,,
1760476527.1154847,0,0.26513671875,0.1248779296875,0.12548828125,9.435114503816793,-160.24427480916032,-29.3206106870229,681.1009174311927,-33.30275229357798,-9.63302752293578,,
1760476527.1260839,0,0.26531982421875,0.12481689453125,0.12542724609375,9.427480916030534,-148.51908396946564,-44.954198473282446,422.7522935779817,-33.57798165137615,-10.091743119266056,,
1760476527.146925,0,0.26544189453125,0.12481689453125,0.12548828125,9.412213740458014,-158.29007633587787,-21.50381679389313,634.1284403669725,-32.84403669724771,-9.81651376146789,,
1760476527.1782677,0,0.265625,0.1248779296875,0.12554931640625,9.412213740458014,-132.8854961832061,-25.412213740458014,610.6422018348624,-33.30275229357798,-9.44954128440367,,
1760476527.1887453,0,0.2657470703125,0.12493896484375,0.1253662109375,9.412213740458014,-144.61068702290078,-9.778625954198473,563.6697247706422,-32.93577981651376,-9.08256880733945,,
1760476527.2097955,0,0.26593017578125,0.1248779296875,0.12542724609375,9.435114503816793,-154.38167938931298,-29.3206106870229,469.72477064220186,-33.30275229357798,-9.81651376146789,,
1760476527.2413185,0,0.26605224609375,0.1248779296875,0.12548828125,9.427480916030534,-144.61068702290078,-5.870229007633588,798.5321100917431,-33.76146788990826,-10.0,,
1760476527.2520573,0,0.2662353515625,0.1248779296875,0.12542724609375,9.419847328244275,-185.64885496183206,-0.007633587786259542,728.0733944954129,-34.03669724770642,-9.44954128440367,,
1760476527.2730691,0,0.266357421875,0.1248779296875,0.12542724609375,9.412213740458014,-158.29007633587787,-15.641221374045802,728.0733944954129,-33.6697247706422,-9.81651376146789,,
1760476527.2835224,0,0.26654052734375,0.12493896484375,0.12548828125,9.427480916030534,-175.87786259541986,-5.870229007633588,845.5045871559633,-32.93577981651376,-9.724770642201836,,
1760476527.30461,0,0.26666259765625,0.124755859375,0.1253662109375,9.419847328244275,-171.96946564885496,-31.27480916030534,1009.908256880734,-33.6697247706422,-9.81651376146789,,
1760476527.3154597,0,0.266845703125,0.1248779296875,0.1256103515625,9.419847328244275,-136.793893129771,-37.13740458015267,493.2110091743119,-33.48623853211009,-8.89908256880734,,
1760476527.3367922,0,0.2669677734375,0.12481689453125,0.1253662109375,9.427480916030534,-134.83969465648855,-46.908396946564885,469.72477064220186,-33.6697247706422,-9.357798165137615,,
1760476527.368416,0,0.26715087890625,0.12493896484375,0.12567138671875,9.404580152671755,-187.6030534351145,-50.81679389312977,587.1559633027523,-33.39449541284404,-9.724770642201836,,
1760476527.3790758,0,0.26727294921875,0.1248779296875,0.12542724609375,9.442748091603054,-113.34351145038168,-58.63358778625954,775.045871559633,-33.30275229357798,-10.0,,
1760476527.4001727,0,0.2674560546875,0.12493896484375,0.12554931640625,9.419847328244275,-125.06870229007633,-52.770992366412216,845.5045871559633,-33.211009174311926,-10.091743119266056,,
1760476527.4109516,0,0.267578125,0.125,0.12542724609375,9.419847328244275,-140.70229007633588,-31.27480916030534,681.1009174311927,-32.93577981651376,-8.990825688073395,,
1760476527.432339,0,0.26776123046875,0.1248779296875,0.12548828125,9.404580152671755,-130.93129770992365,-7.824427480916031,399.26605504587155,-33.57798165137615,-9.81651376146789,,
1760476527.4640577,0,0.26788330078125,0.12481689453125,0.12530517578125,9.419847328244275,-140.70229007633588,-0.007633587786259542,915.9633027522937,-33.30275229357798,-9.44954128440367,,
1760476527.4745562,0,0.26806640625,0.12493896484375,0.1253662109375,9.419847328244275,-156.33587786259542,-44.954198473282446,469.72477064220186,-32.93577981651376,-9.724770642201836,,
1760476527.4956305,0,0.2681884765625,0.12469482421875,0.12542724609375,9.419847328244275,-138.74809160305344,-9.778625954198473,610.6422018348624,-34.03669724770642,-9.357798165137615,,
1760476527.527357,0,0.26837158203125,0.12481689453125,0.12548828125,9.435114503816793,-160.24427480916032,-35.18320610687023,422.7522935779817,-33.30275229357798,-9.26605504587156,,
1760476527.5378237,0,0.26849365234375,0.1248779296875,0.12554931640625,9.427480916030534,-144.61068702290078,-44.954198473282446,798.5321100917431,-33.211009174311926,-9.724770642201836,,
1760476527.5589406,0,0.2686767578125,0.12493896484375,0.12542724609375,9.412213740458014,-152.42748091603053,-29.3206106870229,704.5871559633028,-33.39449541284404,-9.44954128440367,,
1760476527.5906894,0,0.268798828125,0.125,0.12542724609375,9.435114503816793,-146.5648854961832,-41.045801526717554,516.6972477064221,-33.76146788990826,-9.81651376146789,,
1760476527.601546,0,0.26898193359375,0.12481689453125,0.12548828125,9.419847328244275,-173.9236641221374,-21.50381679389313,704.5871559633028,-33.39449541284404,-9.724770642201836,,
1760476527.6229374,0,0.26910400390625,0.124755859375,0.1256103515625,9.404580152671755,-160.24427480916032,-21.50381679389313,469.72477064220186,-32.6605504587156,-9.541284403669724,,
1760476527.6336956,0,0.269287109375,0.12481689453125,0.12567138671875,9.404580152671755,-130.93129770992365,-19.549618320610687,1056.8807339449543,-32.6605504587156,-9.26605504587156,,
1760476527.6548955,0,0.2694091796875,0.12481689453125,0.12542724609375,9.412213740458014,-136.793893129771,-25.412213740458014,915.9633027522937,-33.02752293577982,-9.174311926605505,,
1760476527.6653469,0,0.26959228515625,0.12481689453125,0.12548828125,9.427480916030534,-150.4732824427481,-33.229007633587784,681.1009174311927,-33.11926605504587,-9.174311926605505,,
1760476527.6863601,0,0.26971435546875,0.12493896484375,0.12542724609375,9.396946564885496,-136.793893129771,-43.0,728.0733944954129,-33.211009174311926,-8.990825688073395,,
1760476527.7180247,0,0.2698974609375,0.12481689453125,0.12548828125,9.427480916030534,-162.19847328244273,-7.824427480916031,657.6146788990826,-33.211009174311926,-9.357798165137615,,
1760476527.7498884,0,0.27001953125,0.12493896484375,0.12542724609375,9.427480916030534,-140.70229007633588,-56.6793893129771,587.1559633027523,-33.57798165137615,-9.81651376146789,,
1760476527.760621,0,0.27020263671875,0.12493896484375,0.12542724609375,9.412213740458014,-173.9236641221374,-33.229007633587784,563.6697247706422,-33.85321100917431,-9.44954128440367,,
1760476527.7818558,0,0.27032470703125,0.124755859375,0.12548828125,9.389312977099237,-140.70229007633588,-37.13740458015267,281.8348623853211,-33.211009174311926,-9.724770642201836,,
1760476527.7923603,0,0.2705078125,0.12493896484375,0.1253662109375,9.419847328244275,-109.43511450381679,-31.27480916030534,845.5045871559633,-33.48623853211009,-9.357798165137615,,
1760476527.8132858,0,0.2706298828125,0.1248779296875,0.12554931640625,9.427480916030534,-152.42748091603053,-33.229007633587784,281.8348623853211,-33.30275229357798,-9.44954128440367,,
1760476527.824001,0,0.27081298828125,0.12481689453125,0.12542724609375,9.404580152671755,-119.20610687022901,-23.458015267175572,587.1559633027523,-33.39449541284404,-9.63302752293578,,
1760476527.8453662,0,0.27093505859375,0.1248779296875,0.12542724609375,9.427480916030534,-156.33587786259542,-50.81679389312977,610.6422018348624,-32.93577981651376,-9.908256880733946,,
1760476527.8768528,0,0.2711181640625,0.12493896484375,0.12554931640625,9.427480916030534,-150.4732824427481,-31.27480916030534,1009.908256880734,-33.48623853211009,-9.174311926605505,,
1760476527.8876047,0,0.271240234375,0.124755859375,0.1253662109375,9.419847328244275,-146.5648854961832,-46.908396946564885,610.6422018348624,-33.11926605504587,-9.63302752293578,,
1760476527.909012,0,0.27142333984375,0.12481689453125,0.12542724609375,9.419847328244275,-128.9770992366412,-46.908396946564885,446.2385321100918,-34.12844036697248,-9.357798165137615,,
1760476527.9198632,0,0.27154541015625,0.1248779296875,0.12548828125,9.412213740458014,-171.96946564885496,-25.412213740458014,681.1009174311927,-33.48623853211009,-9.26605504587156,,
1760476527.9514194,0,0.271728515625,0.1248779296875,0.12548828125,9.412213740458014,-156.33587786259542,1.9541984732824427,516.6972477064221,-33.30275229357798,-9.26605504587156,,
1760476527.9621744,0,0.2718505859375,0.1248779296875,0.12548828125,9.419847328244275,-185.64885496183206,-19.549618320610687,775.045871559633,-33.48623853211009,-9.724770642201836,,
1760476527.98346,0,0.27203369140625,0.12481689453125,0.12542724609375,9.419847328244275,-154.38167938931298,-17.595419847328245,915.9633027522937,-33.02752293577982,-9.63302752293578,,
1760476528.0046034,0,0.27215576171875,0.12493896484375,0.1253662109375,9.419847328244275,-177.8320610687023,-29.3206106870229,352.2935779816514,-33.76146788990826,-9.357798165137615,,
1760476528.0152333,0,0.2723388671875,0.12481689453125,0.12542724609375,9.419847328244275,-156.33587786259542,-19.549618320610687,634.1284403669725,-33.48623853211009,-8.89908256880734,,
1760476528.0362663,0,0.2724609375,0.1248779296875,0.1253662109375,9.419847328244275,-128.9770992366412,-56.6793893129771,328.8073394495413,-33.6697247706422,-8.807339449541285,,
1760476528.067483,0,0.27264404296875,0.12481689453125,0.12542724609375,9.435114503816793,-140.70229007633588,-39.091603053435115,516.6972477064221,-33.30275229357798,-10.18348623853211,,
1760476528.0989938,0,0.27276611328125,0.1248779296875,0.12542724609375,9.412213740458014,-140.70229007633588,-23.458015267175572,892.4770642201836,-33.02752293577982,-9.541284403669724,,
1760476528.1097462,0,0.27294921875,0.1248779296875,0.12548828125,9.419847328244275,-162.19847328244273,-39.091603053435115,493.2110091743119,-33.76146788990826,-9.724770642201836,,
1760476528.130788,0,0.2730712890625,0.12481689453125,0.12548828125,9.396946564885496,-132.8854961832061,-37.13740458015267,563.6697247706422,-33.48623853211009,-9.44954128440367,,
1760476528.1412802,0,0.27325439453125,0.124755859375,0.12542724609375,9.396946564885496,-123.1145038167939,-41.045801526717554,610.6422018348624,-33.6697247706422,-9.63302752293578,,
1760476528.162279,0,0.27337646484375,0.124755859375,0.12542724609375,9.412213740458014,-138.74809160305344,-43.0,939.4495412844037,-33.02752293577982,-9.44954128440367,,
1760476528.1941316,0,0.2735595703125,0.1248779296875,0.1253662109375,9.404580152671755,-125.06870229007633,-31.27480916030534,587.1559633027523,-32.93577981651376,-9.724770642201836,,
1760476528.2049022,0,0.273681640625,0.12481689453125,0.12542724609375,9.427480916030534,-130.93129770992365,-19.549618320610687,798.5321100917431,-33.48623853211009,-9.174311926605505,,
1760476528.2260742,0,0.27386474609375,0.1248779296875,0.12548828125,9.412213740458014,-132.8854961832061,-35.18320610687023,540.1834862385322,-33.30275229357798,-9.174311926605505,,
1760476528.2365265,0,0.27398681640625,0.125,0.12542724609375,9.419847328244275,-132.8854961832061,-21.50381679389313,305.3211009174312,-33.57798165137615,-9.26605504587156,,
1760476528.2579167,0,0.274169921875,0.1248779296875,0.12548828125,9.427480916030534,-128.9770992366412,-21.50381679389313,469.72477064220186,-33.76146788990826,-9.44954128440367,,
1760476528.2898402,0,0.2742919921875,0.12481689453125,0.12548828125,9.419847328244275,-127.02290076335878,-35.18320610687023,657.6146788990826,-33.11926605504587,-9.357798165137615,,
1760476528.300554,0,0.27447509765625,0.1248779296875,0.12542724609375,9.427480916030534,-107.48091603053435,-23.458015267175572,798.5321100917431,-33.39449541284404,-10.0,,
1760476528.3219783,0,0.27459716796875,0.1248779296875,0.1253662109375,9.412213740458014,-132.8854961832061,-39.091603053435115,1103.8532110091744,-32.93577981651376,-9.44954128440367,,
1760476528.3328488,0,0.2747802734375,0.1248779296875,0.12542724609375,9.427480916030534,-142.65648854961833,-39.091603053435115,493.2110091743119,-33.94495412844037,-9.81651376146789,,
1760476528.3541842,0,0.27490234375,0.12481689453125,0.12548828125,9.419847328244275,-132.8854961832061,-37.13740458015267,915.9633027522937,-33.211009174311926,-9.541284403669724,,
1760476528.3857484,0,0.27508544921875,0.1248779296875,0.12542724609375,9.412213740458014,-160.24427480916032,-15.641221374045802,939.4495412844037,-33.39449541284404,-9.357798165137615,,
1760476528.3962057,0,0.27520751953125,0.1248779296875,0.12548828125,9.404580152671755,-144.61068702290078,3.9083969465648853,422.7522935779817,-33.02752293577982,-9.357798165137615,,
1760476528.417196,0,0.275390625,0.1248779296875,0.12548828125,9.396946564885496,-162.19847328244273,-52.770992366412216,446.2385321100918,-33.48623853211009,-9.63302752293578,,
1760476528.4279628,0,0.2755126953125,0.1248779296875,0.12542724609375,9.412213740458014,-125.06870229007633,-29.3206106870229,704.5871559633028,-32.84403669724771,-10.091743119266056,,
1760476528.449339,0,0.27569580078125,0.12493896484375,0.12548828125,9.435114503816793,-154.38167938931298,-43.0,657.6146788990826,-33.76146788990826,-9.44954128440367,,
1760476528.480911,0,0.27581787109375,0.1248779296875,0.12554931640625,9.412213740458014,-146.5648854961832,-19.549618320610687,469.72477064220186,-33.94495412844037,-9.44954128440367,,
1760476528.4917092,0,0.2760009765625,0.12493896484375,0.12542724609375,9.435114503816793,-183.6946564885496,-37.13740458015267,681.1009174311927,-33.39449541284404,-9.541284403669724,,
1760476528.51303,0,0.276123046875,0.12493896484375,0.1253662109375,9.412213740458014,-175.87786259541986,-35.18320610687023,563.6697247706422,-33.6697247706422,-9.44954128440367,,
1760476528.5446255,0,0.27630615234375,0.1248779296875,0.12548828125,9.404580152671755,-136.793893129771,-19.549618320610687,939.4495412844037,-33.6697247706422,-9.541284403669724,,
1760476528.5553463,0,0.27642822265625,0.12481689453125,0.1253662109375,9.427480916030534,-130.93129770992365,-39.091603053435115,822.0183486238533,-33.30275229357798,-9.541284403669724,,
1760476528.576423,0,0.276611328125,0.1248779296875,0.12542724609375,9.419847328244275,-123.1145038167939,-33.229007633587784,610.6422018348624,-33.48623853211009,-8.990825688073395,,
1760476528.5869038,0,0.2767333984375,0.12481689453125,0.12554931640625,9.435114503816793,-146.5648854961832,-52.770992366412216,140.91743119266056,-32.75229357798165,-9.63302752293578,,
1760476528.608019,0,0.27691650390625,0.12493896484375,0.12548828125,9.404580152671755,-146.5648854961832,-48.86259541984733,422.7522935779817,-33.211009174311926,-9.81651376146789,,
1760476528.6398675,0,0.27703857421875,0.12481689453125,0.12554931640625,9.427480916030534,-156.33587786259542,-25.412213740458014,493.2110091743119,-34.12844036697248,-9.44954128440367,,
1760476528.6505833,0,0.2772216796875,0.12481689453125,0.12554931640625,9.412213740458014,-168.06106870229007,-15.641221374045802,540.1834862385322,-33.30275229357798,-9.63302752293578,,
1760476528.6613774,0,0.27734375,0.1248779296875,0.12548828125,9.427480916030534,-119.20610687022901,-27.366412213740457,704.5871559633028,-33.30275229357798,-9.724770642201836,,
1760476528.693229,0,0.27752685546875,0.12493896484375,0.1256103515625,9.419847328244275,-128.9770992366412,-37.13740458015267,563.6697247706422,-33.39449541284404,-9.63302752293578,,
1760476528.7247927,0,0.27764892578125,0.12493896484375,0.12548828125,9.412213740458014,-121.16030534351145,-31.27480916030534,446.2385321100918,-32.93577981651376,-9.44954128440367,,
1760476528.7354329,0,0.27783203125,0.125,0.12548828125,9.419847328244275,-117.25190839694656,-54.725190839694655,422.7522935779817,-33.57798165137615,-9.357798165137615,,
1760476528.75681,0,0.2779541015625,0.12481689453125,0.12542724609375,9.419847328244275,-136.793893129771,-9.778625954198473,868.9908256880734,-33.48623853211009,-9.724770642201836,,
1760476528.7675438,0,0.27813720703125,0.124755859375,0.12554931640625,9.427480916030534,-164.15267175572518,-19.549618320610687,540.1834862385322,-33.48623853211009,-9.724770642201836,,
1760476528.7888453,0,0.27825927734375,0.124755859375,0.12554931640625,9.412213740458014,-123.1145038167939,-27.366412213740457,446.2385321100918,-34.22018348623853,-8.715596330275229,,
1760476528.7995656,0,0.2784423828125,0.1248779296875,0.12542724609375,9.412213740458014,-164.15267175572518,-29.3206106870229,422.7522935779817,-33.211009174311926,-9.541284403669724,,
1760476528.8210015,0,0.278564453125,0.1248779296875,0.12548828125,9.435114503816793,-171.96946564885496,-39.091603053435115,493.2110091743119,-32.84403669724771,-9.44954128440367,,
1760476528.8527372,0,0.27874755859375,0.12493896484375,0.12548828125,9.427480916030534,-138.74809160305344,-64.49618320610686,610.6422018348624,-33.02752293577982,-9.908256880733946,,
1760476528.8632534,0,0.27886962890625,0.1248779296875,0.12542724609375,9.442748091603054,-109.43511450381679,-44.954198473282446,751.559633027523,-32.93577981651376,-9.81651376146789,,
1760476528.8846314,0,0.279052734375,0.1248779296875,0.12542724609375,9.404580152671755,-148.51908396946564,-13.687022900763358,211.37614678899084,-33.30275229357798,-9.63302752293578,,
1760476528.916369,0,0.2791748046875,0.12481689453125,0.1253662109375,9.419847328244275,-142.65648854961833,-35.18320610687023,681.1009174311927,-33.57798165137615,-9.357798165137615,,
1760476528.9271166,0,0.27935791015625,0.1248779296875,0.12542724609375,9.419847328244275,-175.87786259541986,-3.9160305343511452,469.72477064220186,-33.02752293577982,-9.26605504587156,,
1760476528.948409,0,0.27947998046875,0.1248779296875,0.12554931640625,9.404580152671755,-115.29770992366412,-84.0381679389313,563.6697247706422,-33.48623853211009,-9.44954128440367,,
1760476528.9591677,0,0.2796630859375,0.1248779296875,0.12542724609375,9.427480916030534,-170.01526717557252,-44.954198473282446,798.5321100917431,-33.48623853211009,-9.44954128440367,,
1760476528.9802864,0,0.27978515625,0.12493896484375,0.12542724609375,9.412213740458014,-138.74809160305344,-29.3206106870229,681.1009174311927,-33.39449541284404,-9.81651376146789,,
1760476528.9911346,0,0.27996826171875,0.12481689453125,0.12548828125,9.412213740458014,-138.74809160305344,-58.63358778625954,540.1834862385322,-33.57798165137615,-8.990825688073395,,
1760476529.0226798,0,0.28009033203125,0.12481689453125,0.12554931640625,9.389312977099237,-158.29007633587787,-46.908396946564885,610.6422018348624,-33.30275229357798,-9.908256880733946,,
1760476529.0544064,0,0.2802734375,0.12481689453125,0.12548828125,9.412213740458014,-152.42748091603053,-48.86259541984733,775.045871559633,-33.39449541284404,-9.81651376146789,,
1760476529.0650191,0,0.2803955078125,0.12493896484375,0.1253662109375,9.435114503816793,-154.38167938931298,-5.870229007633588,704.5871559633028,-32.11009174311927,-9.908256880733946,,
1760476529.075823,0,0.28057861328125,0.1248779296875,0.12548828125,9.419847328244275,-150.4732824427481,-27.366412213740457,563.6697247706422,-33.57798165137615,-10.366972477064222,,
1760476529.1076863,0,0.28070068359375,0.1248779296875,0.12542724609375,9.412213740458014,-113.34351145038168,-27.366412213740457,1009.908256880734,-33.211009174311926,-9.26605504587156,,
1760476529.118287,0,0.2808837890625,0.1248779296875,0.12554931640625,9.404580152671755,-150.4732824427481,-33.229007633587784,634.1284403669725,-33.76146788990826,-10.091743119266056,,
1760476529.1394448,0,0.281005859375,0.1248779296875,0.12554931640625,9.435114503816793,-154.38167938931298,-5.870229007633588,822.0183486238533,-34.22018348623853,-9.541284403669724,,
1760476529.1502347,0,0.28118896484375,0.12481689453125,0.12542724609375,9.419847328244275,-113.34351145038168,-7.824427480916031,657.6146788990826,-33.02752293577982,-9.81651376146789,,
1760476529.1716006,0,0.28131103515625,0.1248779296875,0.1253662109375,9.412213740458014,-166.10687022900763,-33.229007633587784,704.5871559633028,-33.02752293577982,-9.63302752293578,,
1760476529.2031271,0,0.281494140625,0.1248779296875,0.1253662109375,9.412213740458014,-127.02290076335878,-48.86259541984733,798.5321100917431,-32.56880733944954,-9.541284403669724,,
1760476529.213776,0,0.2816162109375,0.12493896484375,0.12542724609375,9.419847328244275,-150.4732824427481,-7.824427480916031,704.5871559633028,-33.85321100917431,-9.63302752293578,,
1760476529.2351885,0,0.28179931640625,0.12493896484375,0.1256103515625,9.419847328244275,-168.06106870229007,-60.587786259541986,516.6972477064221,-33.57798165137615,-9.541284403669724,,
1760476529.2668467,0,0.28192138671875,0.1248779296875,0.12548828125,9.404580152671755,-144.61068702290078,11.725190839694656,634.1284403669725,-33.48623853211009,-9.357798165137615,,
1760476529.2773254,0,0.2821044921875,0.1248779296875,0.12530517578125,9.419847328244275,-127.02290076335878,-60.587786259541986,493.2110091743119,-33.211009174311926,-8.623853211009175,,
1760476529.298426,0,0.2822265625,0.1248779296875,0.12542724609375,9.435114503816793,-152.42748091603053,-37.13740458015267,516.6972477064221,-32.84403669724771,-9.174311926605505,,
1760476529.33009,0,0.28240966796875,0.12481689453125,0.12542724609375,9.419847328244275,-142.65648854961833,-23.458015267175572,516.6972477064221,-33.6697247706422,-10.0,,
1760476529.34087,0,0.28253173828125,0.12493896484375,0.12548828125,9.419847328244275,-168.06106870229007,-21.50381679389313,375.7798165137615,-33.39449541284404,-8.990825688073395,,
1760476529.362259,0,0.28271484375,0.1248779296875,0.12542724609375,9.427480916030534,-115.29770992366412,-17.595419847328245,751.559633027523,-34.4954128440367,-9.63302752293578,,
1760476529.3729787,0,0.2828369140625,0.12493896484375,0.12542724609375,9.427480916030534,-144.61068702290078,-66.45038167938931,610.6422018348624,-33.48623853211009,-9.63302752293578,,
1760476529.3941712,0,0.28302001953125,0.12481689453125,0.12542724609375,9.435114503816793,-128.9770992366412,-39.091603053435115,822.0183486238533,-32.84403669724771,-9.724770642201836,,
1760476529.4255674,0,0.28314208984375,0.1248779296875,0.1253662109375,9.419847328244275,-175.87786259541986,-27.366412213740457,258.34862385321105,-32.11009174311927,-9.63302752293578,,
1760476529.4362674,0,0.2833251953125,0.1248779296875,0.12548828125,9.427480916030534,-134.83969465648855,-35.18320610687023,610.6422018348624,-33.30275229357798,-9.541284403669724,,
1760476529.4572656,0,0.283447265625,0.12493896484375,0.12548828125,9.404580152671755,-146.5648854961832,-27.366412213740457,822.0183486238533,-34.03669724770642,-9.174311926605505,,
1760476529.4677866,0,0.28363037109375,0.124755859375,0.12542724609375,9.412213740458014,-166.10687022900763,-46.908396946564885,610.6422018348624,-33.48623853211009,-9.63302752293578,,
1760476529.4889457,0,0.28375244140625,0.124755859375,0.12542724609375,9.419847328244275,-166.10687022900763,-27.366412213740457,845.5045871559633,-32.84403669724771,-10.0,,
1760476529.510301,0,0.283935546875,0.1248779296875,0.12548828125,9.404580152671755,-146.5648854961832,-5.870229007633588,469.72477064220186,-32.75229357798165,-10.091743119266056,,
1760476529.521116,0,0.2840576171875,0.12481689453125,0.12554931640625,9.427480916030534,-121.16030534351145,9.770992366412214,845.5045871559633,-33.211009174311926,-9.81651376146789,,
1760476529.5423255,0,0.28424072265625,0.12481689453125,0.12548828125,9.419847328244275,-109.43511450381679,-31.27480916030534,563.6697247706422,-33.48623853211009,-9.63302752293578,,
1760476529.5741394,0,0.28436279296875,0.12493896484375,0.12554931640625,9.427480916030534,-138.74809160305344,-15.641221374045802,563.6697247706422,-33.48623853211009,-9.26605504587156,,
1760476529.5846343,0,0.2845458984375,0.1248779296875,0.1253662109375,9.396946564885496,-171.96946564885496,-44.954198473282446,375.7798165137615,-33.57798165137615,-10.091743119266056,,
1760476529.6059327,0,0.28466796875,0.12481689453125,0.12542724609375,9.427480916030534,-152.42748091603053,-17.595419847328245,845.5045871559633,-33.02752293577982,-9.44954128440367,,
1760476529.6167746,0,0.28485107421875,0.12493896484375,0.12542724609375,9.404580152671755,-158.29007633587787,-7.824427480916031,822.0183486238533,-33.48623853211009,-9.26605504587156,,
1760476529.6482553,0,0.28497314453125,0.1248779296875,0.12548828125,9.412213740458014,-156.33587786259542,-52.770992366412216,540.1834862385322,-33.211009174311926,-9.724770642201836,,
1760476529.6693254,0,0.28515625,0.1248779296875,0.12554931640625,9.419847328244275,-138.74809160305344,-31.27480916030534,704.5871559633028,-32.93577981651376,-9.26605504587156,,
1760476529.680033,0,0.2852783203125,0.12493896484375,0.12548828125,9.427480916030534,-156.33587786259542,-33.229007633587784,798.5321100917431,-33.11926605504587,-9.724770642201836,,
1760476529.7011683,0,0.28546142578125,0.12481689453125,0.12548828125,9.419847328244275,-134.83969465648855,-21.50381679389313,751.559633027523,-33.48623853211009,-9.357798165137615,,
1760476529.7328978,0,0.28558349609375,0.1248779296875,0.12542724609375,9.404580152671755,-148.51908396946564,-89.90076335877863,868.9908256880734,-33.11926605504587,-9.81651376146789,,
1760476529.74361,0,0.2857666015625,0.1248779296875,0.12548828125,9.412213740458014,-105.52671755725191,-33.229007633587784,422.7522935779817,-33.211009174311926,-9.541284403669724,,
1760476529.7650414,0,0.285888671875,0.12493896484375,0.12542724609375,9.404580152671755,-127.02290076335878,-7.824427480916031,493.2110091743119,-32.84403669724771,-9.44954128440367,,
1760476529.775632,0,0.28607177734375,0.12481689453125,0.12548828125,9.419847328244275,-154.38167938931298,-60.587786259541986,868.9908256880734,-33.6697247706422,-9.724770642201836,,
1760476529.796757,0,0.28619384765625,0.12493896484375,0.12542724609375,9.404580152671755,-138.74809160305344,-52.770992366412216,563.6697247706422,-33.11926605504587,-9.724770642201836,,
1760476529.8282976,0,0.286376953125,0.1248779296875,0.12548828125,9.419847328244275,-158.29007633587787,-44.954198473282446,516.6972477064221,-33.6697247706422,-9.63302752293578,,
1760476529.8389995,0,0.2864990234375,0.12481689453125,0.1253662109375,9.412213740458014,-199.32824427480915,-52.770992366412216,915.9633027522937,-33.85321100917431,-9.908256880733946,,
1760476529.8603952,0,0.28668212890625,0.124755859375,0.1253662109375,9.404580152671755,-156.33587786259542,-11.732824427480915,610.6422018348624,-33.02752293577982,-9.724770642201836,,
1760476529.8922453,0,0.28680419921875,0.1248779296875,0.12542724609375,9.419847328244275,-150.4732824427481,-66.45038167938931,516.6972477064221,-33.11926605504587,-9.26605504587156,,
1760476529.902971,0,0.2869873046875,0.12493896484375,0.12548828125,9.419847328244275,-128.9770992366412,-54.725190839694655,915.9633027522937,-33.94495412844037,-9.63302752293578,,
1760476529.9242046,0,0.287109375,0.1248779296875,0.1256103515625,9.412213740458014,-136.793893129771,-52.770992366412216,775.045871559633,-33.211009174311926,-8.89908256880734,,
1760476529.9559345,0,0.28729248046875,0.1248779296875,0.12548828125,9.427480916030534,-138.74809160305344,-35.18320610687023,681.1009174311927,-33.48623853211009,-10.18348623853211,,
1760476529.966729,0,0.28741455078125,0.12493896484375,0.12542724609375,9.419847328244275,-128.9770992366412,-31.27480916030534,493.2110091743119,-33.6697247706422,-9.908256880733946,,
1760476529.9880903,0,0.28759765625,0.1248779296875,0.12548828125,9.396946564885496,-148.51908396946564,-23.458015267175572,868.9908256880734,-33.57798165137615,-9.63302752293578,,
1760476529.998866,0,0.2877197265625,0.1248779296875,0.12548828125,9.412213740458014,-150.4732824427481,-43.0,657.6146788990826,-32.84403669724771,-9.908256880733946,,
1760476530.0203464,0,0.28790283203125,0.12481689453125,0.12548828125,9.419847328244275,-158.29007633587787,-37.13740458015267,751.559633027523,-33.57798165137615,-9.724770642201836,,
1760476530.041739,0,0.28802490234375,0.12493896484375,0.12542724609375,9.412213740458014,-146.5648854961832,-7.824427480916031,986.4220183486239,-33.11926605504587,-9.26605504587156,,
1760476530.052323,0,0.2882080078125,0.1248779296875,0.12542724609375,9.412213740458014,-144.61068702290078,-1.9618320610687023,775.045871559633,-33.39449541284404,-10.18348623853211,,
1760476530.0735111,0,0.288330078125,0.1248779296875,0.12554931640625,9.427480916030534,-128.9770992366412,-27.366412213740457,493.2110091743119,-33.85321100917431,-9.357798165137615,,
1760476530.0841372,0,0.28851318359375,0.124755859375,0.12554931640625,9.427480916030534,-146.5648854961832,-37.13740458015267,868.9908256880734,-33.02752293577982,-9.357798165137615,,
1760476530.1052234,0,0.28863525390625,0.12493896484375,0.12548828125,9.427480916030534,-127.02290076335878,-13.687022900763358,610.6422018348624,-32.6605504587156,-10.091743119266056,,
1760476530.1370807,0,0.288818359375,0.12481689453125,0.12548828125,9.427480916030534,-128.9770992366412,-15.641221374045802,915.9633027522937,-32.84403669724771,-9.174311926605505,,
1760476530.1479163,0,0.2889404296875,0.12481689453125,0.12548828125,9.427480916030534,-121.16030534351145,-46.908396946564885,610.6422018348624,-33.85321100917431,-9.541284403669724,,
1760476530.1692681,0,0.28912353515625,0.12493896484375,0.1253662109375,9.404580152671755,-171.96946564885496,-72.31297709923665,375.7798165137615,-32.84403669724771,-9.08256880733945,,
1760476530.2011423,0,0.28924560546875,0.124755859375,0.12530517578125,9.419847328244275,-164.15267175572518,-54.725190839694655,704.5871559633028,-32.93577981651376,-9.63302752293578,,
1760476530.2118957,0,0.2894287109375,0.12481689453125,0.12542724609375,9.427480916030534,-164.15267175572518,-25.412213740458014,657.6146788990826,-33.48623853211009,-9.44954128440367,,
1760476530.233415,0,0.28955078125,0.12493896484375,0.12542724609375,9.427480916030534,-115.29770992366412,-41.045801526717554,540.1834862385322,-34.03669724770642,-9.26605504587156,,
1760476530.2442658,0,0.28973388671875,0.1248779296875,0.12554931640625,9.412213740458014,-150.4732824427481,-31.27480916030534,704.5871559633028,-33.57798165137615,-9.26605504587156,,
1760476530.2656262,0,0.28985595703125,0.125,0.1253662109375,9.419847328244275,-136.793893129771,-33.229007633587784,962.9357798165138,-33.30275229357798,-9.44954128440367,,
1760476530.2973394,0,0.2900390625,0.12481689453125,0.12548828125,9.404580152671755,-140.70229007633588,-23.458015267175572,751.559633027523,-33.57798165137615,-9.541284403669724,,
1760476530.3082075,0,0.2901611328125,0.1248779296875,0.12542724609375,9.419847328244275,-140.70229007633588,-35.18320610687023,986.4220183486239,-33.48623853211009,-9.81651376146789,,
1760476530.3291488,0,0.29034423828125,0.124755859375,0.12554931640625,9.435114503816793,-160.24427480916032,1.9541984732824427,822.0183486238533,-33.30275229357798,-10.275229357798166,,
1760476530.360971,0,0.29046630859375,0.12481689453125,0.12548828125,9.419847328244275,-117.25190839694656,-29.3206106870229,1080.3669724770643,-33.39449541284404,-9.44954128440367,,
1760476530.3717754,0,0.2906494140625,0.1248779296875,0.1253662109375,9.412213740458014,-111.38931297709924,-39.091603053435115,704.5871559633028,-33.76146788990826,-9.541284403669724,,
1760476530.3930264,0,0.290771484375,0.12481689453125,0.12548828125,9.404580152671755,-138.74809160305344,-43.0,587.1559633027523,-34.03669724770642,-9.357798165137615,,
1760476530.4036777,0,0.29095458984375,0.1248779296875,0.12548828125,9.404580152671755,-175.87786259541986,-43.0,775.045871559633,-33.30275229357798,-9.174311926605505,,
1760476530.424976,0,0.29107666015625,0.12493896484375,0.12542724609375,9.427480916030534,-173.9236641221374,-39.091603053435115,587.1559633027523,-33.76146788990826,-9.44954128440367,,
1760476530.456697,0,0.291259765625,0.1248779296875,0.1253662109375,9.419847328244275,-154.38167938931298,-35.18320610687023,352.2935779816514,-33.48623853211009,-9.08256880733945,,
1760476530.4671204,0,0.2913818359375,0.12481689453125,0.1253662109375,9.427480916030534,-142.65648854961833,-37.13740458015267,704.5871559633028,-33.48623853211009,-9.541284403669724,,
1760476530.4883842,0,0.29156494140625,0.12481689453125,0.1253662109375,9.419847328244275,-146.5648854961832,-19.549618320610687,516.6972477064221,-34.403669724770644,-9.174311926605505,,
1760476530.520377,0,0.29168701171875,0.12481689453125,0.12548828125,9.419847328244275,-154.38167938931298,-60.587786259541986,634.1284403669725,-33.48623853211009,-9.26605504587156,,
1760476530.531144,0,0.2918701171875,0.125,0.12542724609375,9.427480916030534,-146.5648854961832,-70.3587786259542,868.9908256880734,-34.12844036697248,-9.908256880733946,,
1760476530.5523696,0,0.2919921875,0.12493896484375,0.12548828125,9.427480916030534,-166.10687022900763,-27.366412213740457,469.72477064220186,-33.39449541284404,-9.724770642201836,,
1760476530.5631433,0,0.29217529296875,0.12481689453125,0.12530517578125,9.427480916030534,-152.42748091603053,-23.458015267175572,352.2935779816514,-33.211009174311926,-9.724770642201836,,
1760476530.5845335,0,0.29229736328125,0.12493896484375,0.12554931640625,9.419847328244275,-142.65648854961833,-11.732824427480915,892.4770642201836,-34.22018348623853,-9.44954128440367,,
1760476530.6059313,0,0.29248046875,0.12493896484375,0.12542724609375,9.427480916030534,-138.74809160305344,-56.6793893129771,493.2110091743119,-33.39449541284404,-9.357798165137615,,
1760476530.6167047,0,0.2926025390625,0.1248779296875,0.1253662109375,9.442748091603054,-154.38167938931298,-9.778625954198473,399.26605504587155,-34.67889908256881,-9.357798165137615,,
1760476530.6484518,0,0.29278564453125,0.1248779296875,0.12542724609375,9.419847328244275,-146.5648854961832,-29.3206106870229,962.9357798165138,-34.12844036697248,-9.08256880733945,,
1760476530.6697116,0,0.29290771484375,0.1248779296875,0.1253662109375,9.419847328244275,-152.42748091603053,-7.824427480916031,610.6422018348624,-33.39449541284404,-10.0,,
1760476530.680468,0,0.2930908203125,0.1265869140625,0.1346435546875,9.404580152671755,-248.18320610687022,-213.01526717557252,541.1926605504588,-33.48623853211009,-9.81651376146789,,
1760476530.7019095,0,0.293212890625,0.12615966796875,0.11602783203125,9.541984732824428,21.50381679389313,-3.9160305343511452,-2068.0733944954127,-33.48623853211009,-9.724770642201836,,
1760476530.7126915,0,0.29339599609375,0.12847900390625,0.12359619140625,9.435114503816793,-89.8854961832061,95.76335877862596,-2586.146788990826,-34.03669724770642,-9.357798165137615,,
1760476530.733943,0,0.29351806640625,0.12847900390625,0.11865234375,9.625954198473282,-228.6259541984733,-39.0763358778626,1333.7614678899083,-34.862385321100916,-8.53211009174312,,
1760476530.7658114,0,0.293701171875,0.1204833984375,0.12078857421875,8.374045801526718,113.2442748091603,230.61832061068702,-1437.8899082568807,-35.77981651376147,-8.34862385321101,,
1760476530.7765489,0,0.2938232421875,0.11932373046875,0.12542724609375,9.427480916030534,246.06870229007635,-195.4198473282443,-1695.045871559633,-36.51376146788991,-6.238532110091743,,
1760476530.7976904,0,0.29400634765625,0.1214599609375,0.12994384765625,9.053435114503817,-74.5114503816794,-130.95419847328245,2394.4954128440368,-37.706422018348626,-5.688073394495413,,
1760476530.8292642,0,0.29412841796875,0.12841796875,0.1314697265625,9.320610687022901,-96.09923664122137,197.34351145038167,2160.5504587155965,-37.79816513761468,-4.954128440366973,,
1760476530.8400197,0,0.2943115234375,0.12744140625,0.13653564453125,9.297709923664122,-150.86259541984734,-160.24427480916032,-1925.9633027522934,-37.3394495412844,-4.036697247706423,,
1760476530.861397,0,0.29443359375,0.12750244140625,0.13922119140625,9.312977099236642,192.95419847328245,-46.916030534351144,-2958.9908256880735,-37.3394495412844,-2.293577981651376,,
1760476530.8721662,0,0.29461669921875,0.12823486328125,0.14495849609375,9.763358778625955,83.42748091603053,-95.68702290076335,-1104.1284403669724,-37.06422018348624,-1.3761467889908259,,
1760476530.893267,0,0.29473876953125,0.1258544921875,0.148681640625,10.15267175572519,-139.3587786259542,48.969465648854964,375.04587155963304,-36.972477064220186,0.5504587155963303,,
1760476530.9249365,0,0.294921875,0.13018798828125,0.14410400390625,10.335877862595419,126.17557251908397,191.40458015267177,2958.348623853211,-37.15596330275229,2.6605504587155964,,
1760476530.935714,0,0.2950439453125,0.124755859375,0.15594482421875,11.49618320610687,-151.33587786259542,-35.16793893129771,2771.2844036697247,-36.972477064220186,5.229357798165138,,
1760476530.9570692,0,0.29522705078125,0.1214599609375,0.162109375,11.549618320610687,-8.679389312977099,126.98473282442748,-2325.229357798165,-37.43119266055046,8.256880733944955,,
1760476530.9887626,0,0.29534912109375,0.1220703125,0.176513671875,10.648854961832061,0.9770992366412213,146.54198473282443,70.45871559633028,-37.98165137614679,10.733944954128441,,
1760476530.999504,0,0.2955322265625,0.125244140625,0.1536865234375,15.442748091603054,0.9770992366412213,-111.4885496183206,2983.302752293578,-37.43119266055046,13.669724770642203,,
1760476531.0101912,0,0.295654296875,0.10821533203125,0.18768310546875,10.442748091603054,91.44274809160305,240.2290076335878,-166.78899082568807,-37.522935779816514,17.431192660550458,,
1760476531.0206983,0,0.29583740234375,0.12579345703125,0.1795654296875,16.358778625954198,-220.7709923664122,-91.74045801526718,2160.45871559633,-36.3302752293578,19.08256880733945,,
1760476531.0419843,0,0.29595947265625,0.12738037109375,0.1746826171875,16.38167938931298,-211.0381679389313,-183.74809160305344,2818.3486238532114,-37.61467889908257,18.256880733944953,,
1760476531.073316,0,0.296142578125,0.12469482421875,0.17486572265625,16.045801526717558,199.3587786259542,33.17557251908397,-94.03669724770643,-37.15596330275229,19.449541284403672,,
1760476531.0839455,0,0.2962646484375,0.125244140625,0.1749267578125,16.061068702290076,205.24427480916032,-162.24427480916032,-211.4678899082569,-37.43119266055046,19.174311926605505,,
1760476531.1050856,0,0.29644775390625,0.125732421875,0.1749267578125,16.19083969465649,-119.12977099236642,-19.580152671755727,-1291.834862385321,-37.247706422018354,19.357798165137616,,
1760476531.137027,0,0.29656982421875,0.12554931640625,0.175048828125,16.18320610687023,-136.58778625954199,-123.16793893129771,-1737.9816513761468,-36.69724770642202,18.440366972477065,,
1760476531.1478724,0,0.2967529296875,0.12396240234375,0.17510986328125,16.129770992366414,12.030534351145038,-242.31297709923663,822.0183486238533,-36.23853211009174,17.98165137614679,,
1760476531.1689827,0,0.296875,0.1221923828125,0.1773681640625,15.366412213740459,-3.49618320610687,179.90076335877862,-1408.6238532110092,-37.247706422018354,17.706422018348626,,
1760476531.2007437,0,0.29705810546875,0.12469482421875,0.173095703125,14.534351145038167,-130.50381679389312,144.75572519083968,1315.7798165137615,-37.15596330275229,16.51376146788991,,
1760476531.2325046,0,0.29718017578125,0.12872314453125,0.1710205078125,13.778625954198473,-101.27480916030534,218.96946564885496,422.9357798165138,-37.706422018348626,15.688073394495413,,
1760476531.243155,0,0.29736328125,0.12664794921875,0.1708984375,13.511450381679388,219.08396946564886,-140.67175572519085,-1080.2752293577983,-37.61467889908257,14.587155963302752,,
1760476531.253818,0,0.2974853515625,0.12689208984375,0.170654296875,13.473282442748092,105.64885496183206,-203.24427480916032,2771.467889908257,-37.79816513761468,14.220183486238533,,
1760476531.2958958,0,0.29766845703125,0.1265869140625,0.17181396484375,13.511450381679388,152.46564885496184,-15.664122137404581,-2137.2477064220184,-37.61467889908257,13.302752293577983,,
1760476531.3064516,0,0.29779052734375,0.1259765625,0.17254638671875,13.770992366412214,7.847328244274809,-201.27480916030535,-775.2293577981652,-37.522935779816514,13.394495412844037,,
1760476531.3173182,0,0.2979736328125,0.1259765625,0.1722412109375,13.51908396946565,54.786259541984734,58.66412213740458,-1902.4770642201834,-37.79816513761468,13.761467889908257,,
1760476531.3282828,0,0.298095703125,0.12677001953125,0.1712646484375,13.358778625954198,52.81679389312977,-13.648854961832061,-1973.0275229357796,-37.88990825688073,13.761467889908257,,
1760476531.339034,0,0.29827880859375,0.126953125,0.17144775390625,13.419847328244275,33.267175572519086,23.49618320610687,-1996.51376146789,-38.1651376146789,12.935779816513762,,
1760476531.360131,0,0.29840087890625,0.128662109375,0.1712646484375,13.458015267175572,-121.14503816793894,52.7557251908397,-1691.0091743119267,-38.62385321100918,12.935779816513762,,
1760476531.3919597,0,0.298583984375,0.1273193359375,0.1715087890625,13.526717557251908,246.206106870229,-35.19083969465649,2489.3577981651374,-37.706422018348626,12.752293577981652,,
1760476531.4024718,0,0.2987060546875,0.12646484375,0.17059326171875,13.34351145038168,134.80152671755727,56.66412213740458,-1338.9908256880733,-37.43119266055046,13.119266055045872,,
1760476531.4234715,0,0.29888916015625,0.12677001953125,0.1712646484375,13.419847328244275,-35.25954198473283,132.86259541984734,1221.0091743119267,-38.07339449541284,13.302752293577983,,
1760476531.4554203,0,0.29901123046875,0.12640380859375,0.17181396484375,13.610687022900763,-166.206106870229,-173.95419847328245,-798.8990825688073,-38.25688073394495,13.669724770642203,,
1760476531.4660954,0,0.2991943359375,0.125732421875,0.174072265625,13.664122137404581,56.56488549618321,29.27480916030534,1667.1559633027523,-37.79816513761468,13.761467889908257,,
1760476531.4872336,0,0.29931640625,0.12640380859375,0.17279052734375,14.0,115.2442748091603,113.30534351145039,1174.2201834862385,-37.15596330275229,13.669724770642203,,
1760476531.4978628,0,0.29949951171875,0.12548828125,0.1728515625,13.969465648854962,-35.221374045801525,27.328244274809162,-2841.926605504587,-37.522935779816514,14.220183486238533,,
1760476531.5190003,0,0.29962158203125,0.125244140625,0.173095703125,13.969465648854962,103.54198473282443,-123.14503816793894,-1010.0,-37.06422018348624,14.954128440366974,,
1760476531.5507638,0,0.2998046875,0.12548828125,0.17327880859375,14.068702290076336,140.68702290076337,158.26717557251908,1972.8440366972477,-37.3394495412844,14.495412844036698,,
1760476531.5615518,0,0.2999267578125,0.12530517578125,0.173095703125,14.030534351145038,-218.87786259541986,-13.717557251908397,2043.3027522935781,-37.88990825688073,14.495412844036698,,
1760476531.5829737,0,0.30010986328125,0.125244140625,0.17327880859375,14.01526717557252,-76.22137404580153,91.80916030534351,211.4678899082569,-37.247706422018354,14.220183486238533,,
1760476531.614687,0,0.30023193359375,0.127197265625,0.17327880859375,14.13740458015267,-23.458015267175572,250.06870229007635,-1362.0183486238534,-36.60550458715596,14.128440366972479,,
