timestamp,packet_id,accel_x,accel_y,accel_z,gyro_x,gyro_y,gyro_z,mag_x,mag_y,mag_z,battery,temperature
1760472453.9676306,0,0.44281005859375,0.1243896484375,0.12506103515625,9.419847328244275,-175.87786259541986,-41.045801526717554,751.559633027523,-36.972477064220186,-5.963302752293578,,
1760472453.9790552,0,0.4429931640625,0.12451171875,0.125,9.412213740458014,-140.70229007633588,-17.595419847328245,563.6697247706422,-36.88073394495413,-5.412844036697248,,
1760472454.0000317,0,0.443115234375,0.12445068359375,0.12493896484375,9.419847328244275,-117.25190839694656,-21.50381679389313,540.1834862385322,-37.522935779816514,-5.229357798165138,,
1760472454.0315294,0,0.44329833984375,0.12457275390625,0.1251220703125,9.412213740458014,-160.24427480916032,-23.458015267175572,540.1834862385322,-37.3394495412844,-5.229357798165138,,
1760472454.042221,0,0.44342041015625,0.12457275390625,0.1251220703125,9.404580152671755,-121.16030534351145,-39.091603053435115,704.5871559633028,-36.972477064220186,-5.596330275229358,,
1760472454.0637002,0,0.443603515625,0.12451171875,0.12506103515625,9.419847328244275,-168.06106870229007,-62.541984732824424,563.6697247706422,-37.522935779816514,-5.779816513761468,,
1760472454.0953977,0,0.4437255859375,0.12457275390625,0.12493896484375,9.419847328244275,-121.16030534351145,-44.954198473282446,610.6422018348624,-36.88073394495413,-6.146788990825688,,
1760472454.1060386,0,0.44390869140625,0.12445068359375,0.125,9.412213740458014,-113.34351145038168,-60.587786259541986,775.045871559633,-37.06422018348624,-5.5045871559633035,,
1760472454.127244,0,0.44403076171875,0.12451171875,0.1248779296875,9.412213740458014,-130.93129770992365,-39.091603053435115,516.6972477064221,-36.60550458715596,-5.596330275229358,,
1760472454.159091,0,0.4442138671875,0.12445068359375,0.12493896484375,9.419847328244275,-146.5648854961832,-58.63358778625954,375.7798165137615,-37.3394495412844,-5.779816513761468,,
1760472454.1698654,0,0.4443359375,0.12445068359375,0.12506103515625,9.419847328244275,-150.4732824427481,-48.86259541984733,728.0733944954129,-37.06422018348624,-5.5045871559633035,,
1760472454.191235,0,0.44451904296875,0.12457275390625,0.125,9.404580152671755,-173.9236641221374,-37.13740458015267,469.72477064220186,-37.61467889908257,-5.137614678899083,,
1760472454.2125251,0,0.44464111328125,0.12457275390625,0.125,9.442748091603054,-128.9770992366412,-56.6793893129771,634.1284403669725,-37.3394495412844,-5.596330275229358,,
1760472454.2233112,0,0.44482421875,0.12445068359375,0.12493896484375,9.419847328244275,-138.74809160305344,-44.954198473282446,939.4495412844037,-37.88990825688073,-6.055045871559633,,
1760472454.2446177,0,0.4449462890625,0.12451171875,0.12493896484375,9.412213740458014,-177.8320610687023,-9.778625954198473,728.0733944954129,-37.79816513761468,-5.412844036697248,,
1760472454.255287,0,0.44512939453125,0.1246337890625,0.125,9.419847328244275,-136.793893129771,-35.18320610687023,516.6972477064221,-37.15596330275229,-5.688073394495413,,
1760472454.2760794,0,0.44525146484375,0.12451171875,0.125,9.412213740458014,-170.01526717557252,-27.366412213740457,634.1284403669725,-37.06422018348624,-6.055045871559633,,
1760472454.3174365,0,0.4454345703125,0.12445068359375,0.125,9.419847328244275,-115.29770992366412,-43.0,446.2385321100918,-36.60550458715596,-5.596330275229358,,
1760472454.3278828,0,0.445556640625,0.1243896484375,0.12493896484375,9.442748091603054,-146.5648854961832,-21.50381679389313,610.6422018348624,-37.61467889908257,-6.238532110091743,,
1760472454.3489344,0,0.44573974609375,0.12445068359375,0.125,9.419847328244275,-136.793893129771,-31.27480916030534,939.4495412844037,-37.3394495412844,-5.229357798165138,,
1760472454.3596296,0,0.44586181640625,0.12451171875,0.1251220703125,9.427480916030534,-168.06106870229007,-31.27480916030534,845.5045871559633,-37.06422018348624,-5.412844036697248,,
1760472454.381001,0,0.446044921875,0.12451171875,0.12506103515625,9.419847328244275,-158.29007633587787,-50.81679389312977,751.559633027523,-37.98165137614679,-5.321100917431193,,
1760472454.412967,0,0.4461669921875,0.12457275390625,0.12493896484375,9.419847328244275,-168.06106870229007,-50.81679389312977,493.2110091743119,-37.06422018348624,-5.871559633027523,,
1760472454.423746,0,0.44635009765625,0.1243896484375,0.125,9.427480916030534,-156.33587786259542,-33.229007633587784,634.1284403669725,-37.247706422018354,-6.055045871559633,,
1760472454.4451523,0,0.44647216796875,0.12445068359375,0.1251220703125,9.427480916030534,-115.29770992366412,-23.458015267175572,258.34862385321105,-37.79816513761468,-5.5045871559633035,,
1760472454.4559097,0,0.4466552734375,0.12451171875,0.125,9.404580152671755,-140.70229007633588,-21.50381679389313,516.6972477064221,-36.88073394495413,-5.5045871559633035,,
1760472454.4667583,0,0.44677734375,0.12451171875,0.12493896484375,9.427480916030534,-160.24427480916032,-13.687022900763358,798.5321100917431,-37.06422018348624,-5.321100917431193,,
1760472454.4986181,0,0.44696044921875,0.12445068359375,0.1251220703125,9.419847328244275,-130.93129770992365,-5.870229007633588,610.6422018348624,-36.60550458715596,-5.321100917431193,,
1760472454.5305464,0,0.44708251953125,0.12457275390625,0.12493896484375,9.419847328244275,-171.96946564885496,-97.7175572519084,798.5321100917431,-37.61467889908257,-5.412844036697248,,
1760472454.541309,0,0.447265625,0.12457275390625,0.1251220703125,9.419847328244275,-134.83969465648855,-35.18320610687023,775.045871559633,-36.788990825688074,-5.5045871559633035,,
1760472454.562621,0,0.4473876953125,0.1243896484375,0.12506103515625,9.427480916030534,-148.51908396946564,-31.27480916030534,211.37614678899084,-36.788990825688074,-6.330275229357799,,
1760472454.5734034,0,0.44757080078125,0.12451171875,0.125,9.419847328244275,-148.51908396946564,-31.27480916030534,516.6972477064221,-37.3394495412844,-5.5045871559633035,,
1760472454.5949018,0,0.44769287109375,0.12457275390625,0.12506103515625,9.435114503816793,-144.61068702290078,-33.229007633587784,845.5045871559633,-37.43119266055046,-4.770642201834862,,
1760472454.6056132,0,0.4478759765625,0.12445068359375,0.12506103515625,9.412213740458014,-128.9770992366412,-9.778625954198473,422.7522935779817,-36.69724770642202,-5.5045871559633035,,
1760472454.627019,0,0.447998046875,0.12451171875,0.125,9.419847328244275,-123.1145038167939,-48.86259541984733,375.7798165137615,-36.972477064220186,-5.321100917431193,,
1760472454.6589367,0,0.44818115234375,0.12451171875,0.125,9.427480916030534,-160.24427480916032,-25.412213740458014,328.8073394495413,-36.972477064220186,-5.596330275229358,,
1760472454.669704,0,0.44830322265625,0.12451171875,0.125,9.412213740458014,-142.65648854961833,-21.50381679389313,469.72477064220186,-36.42201834862385,-5.137614678899083,,
1760472454.691062,0,0.448486328125,0.12457275390625,0.12518310546875,9.435114503816793,-152.42748091603053,-9.778625954198473,822.0183486238533,-37.247706422018354,-5.412844036697248,,
1760472454.7229574,0,0.4486083984375,0.12445068359375,0.125,9.427480916030534,-144.61068702290078,-44.954198473282446,728.0733944954129,-36.60550458715596,-5.688073394495413,,
1760472454.73371,0,0.44879150390625,0.12451171875,0.125,9.427480916030534,-146.5648854961832,-29.3206106870229,587.1559633027523,-36.788990825688074,-5.412844036697248,,
1760472454.7550294,0,0.44891357421875,0.12451171875,0.1251220703125,9.419847328244275,-156.33587786259542,-27.366412213740457,681.1009174311927,-37.522935779816514,-4.954128440366973,,
1760472454.776337,0,0.4490966796875,0.12445068359375,0.12493896484375,9.427480916030534,-160.24427480916032,-33.229007633587784,704.5871559633028,-36.788990825688074,-5.779816513761468,,
1760472454.787125,0,0.44921875,0.12445068359375,0.125,9.427480916030534,-175.87786259541986,-54.725190839694655,868.9908256880734,-37.06422018348624,-5.963302752293578,,
1760472454.8084998,0,0.44940185546875,0.12451171875,0.12506103515625,9.435114503816793,-185.64885496183206,-66.45038167938931,798.5321100917431,-36.69724770642202,-5.779816513761468,,
1760472454.8193405,0,0.44952392578125,0.12445068359375,0.125,9.435114503816793,-160.24427480916032,-25.412213740458014,563.6697247706422,-36.972477064220186,-5.871559633027523,,
1760472454.8408363,0,0.44970703125,0.12457275390625,0.12493896484375,9.435114503816793,-117.25190839694656,-29.3206106870229,657.6146788990826,-37.15596330275229,-5.137614678899083,,
1760472454.8725524,0,0.4498291015625,0.12457275390625,0.12506103515625,9.419847328244275,-164.15267175572518,-37.13740458015267,516.6972477064221,-37.247706422018354,-5.137614678899083,,
1760472454.883316,0,0.45001220703125,0.12445068359375,0.12481689453125,9.419847328244275,-134.83969465648855,-13.687022900763358,516.6972477064221,-37.247706422018354,-5.871559633027523,,
1760472454.904709,0,0.45013427734375,0.12445068359375,0.125,9.427480916030534,-162.19847328244273,-41.045801526717554,845.5045871559633,-37.06422018348624,-5.412844036697248,,
1760472454.9155152,0,0.4503173828125,0.12445068359375,0.125,9.419847328244275,-134.83969465648855,-7.824427480916031,681.1009174311927,-37.247706422018354,-5.229357798165138,,
1760472454.9370897,0,0.450439453125,0.12451171875,0.12506103515625,9.427480916030534,-111.38931297709924,-50.81679389312977,892.4770642201836,-36.972477064220186,-5.229357798165138,,
1760472454.969029,0,0.45062255859375,0.12445068359375,0.12506103515625,9.412213740458014,-152.42748091603053,-35.18320610687023,704.5871559633028,-36.88073394495413,-5.688073394495413,,
1760472454.9798434,0,0.45074462890625,0.12457275390625,0.12493896484375,9.419847328244275,-142.65648854961833,-68.40458015267176,446.2385321100918,-36.69724770642202,-5.688073394495413,,
1760472455.0012105,0,0.450927734375,0.12457275390625,0.12493896484375,9.404580152671755,-164.15267175572518,-33.229007633587784,728.0733944954129,-37.43119266055046,-5.412844036697248,,
1760472455.0329676,0,0.4510498046875,0.12451171875,0.125,9.412213740458014,-128.9770992366412,-37.13740458015267,375.7798165137615,-36.69724770642202,-5.779816513761468,,
1760472455.0436425,0,0.45123291015625,0.12451171875,0.125,9.419847328244275,-130.93129770992365,-33.229007633587784,681.1009174311927,-37.06422018348624,-5.779816513761468,,
1760472455.0649962,0,0.45135498046875,0.12451171875,0.12506103515625,9.419847328244275,-144.61068702290078,-7.824427480916031,610.6422018348624,-37.15596330275229,-5.137614678899083,,
1760472455.0757735,0,0.4515380859375,0.12445068359375,0.125,9.419847328244275,-171.96946564885496,-37.13740458015267,728.0733944954129,-36.88073394495413,-5.5045871559633035,,
1760472455.0970955,0,0.45166015625,0.12451171875,0.125,9.412213740458014,-154.38167938931298,-29.3206106870229,399.26605504587155,-37.247706422018354,-5.5045871559633035,,
1760472455.128951,0,0.45184326171875,0.12451171875,0.12493896484375,9.435114503816793,-138.74809160305344,-31.27480916030534,845.5045871559633,-36.69724770642202,-5.412844036697248,,
1760472455.1397812,0,0.45196533203125,0.12451171875,0.125,9.412213740458014,-173.9236641221374,-15.641221374045802,399.26605504587155,-37.706422018348626,-5.596330275229358,,
1760472455.1611283,0,0.4521484375,0.12451171875,0.12506103515625,9.427480916030534,-128.9770992366412,-19.549618320610687,845.5045871559633,-38.34862385321101,-5.412844036697248,,
1760472455.1930456,0,0.4522705078125,0.12445068359375,0.12506103515625,9.427480916030534,-175.87786259541986,-54.725190839694655,845.5045871559633,-37.3394495412844,-5.779816513761468,,
1760472455.2038531,0,0.45245361328125,0.12469482421875,0.1251220703125,9.412213740458014,-130.93129770992365,-25.412213740458014,634.1284403669725,-37.43119266055046,-5.688073394495413,,
1760472455.22517,0,0.45257568359375,0.12469482421875,0.12493896484375,9.412213740458014,-166.10687022900763,-48.86259541984733,634.1284403669725,-35.77981651376147,-5.412844036697248,,
1760472455.236042,0,0.4527587890625,0.12451171875,0.125,9.419847328244275,-128.9770992366412,-87.94656488549619,775.045871559633,-37.247706422018354,-5.596330275229358,,
1760472455.2572327,0,0.452880859375,0.1243896484375,0.1251220703125,9.412213740458014,-140.70229007633588,-13.687022900763358,657.6146788990826,-37.3394495412844,-5.412844036697248,,
1760472455.2784696,0,0.45306396484375,0.1246337890625,0.12506103515625,9.419847328244275,-156.33587786259542,-56.6793893129771,681.1009174311927,-37.15596330275229,-5.596330275229358,,
1760472455.2893276,0,0.45318603515625,0.12457275390625,0.125244140625,9.404580152671755,-168.06106870229007,-29.3206106870229,681.1009174311927,-37.247706422018354,-5.045871559633028,,
1760472455.3108504,0,0.453369140625,0.12445068359375,0.125,9.412213740458014,-121.16030534351145,-25.412213740458014,587.1559633027523,-37.43119266055046,-5.229357798165138,,
1760472455.3421612,0,0.4534912109375,0.12457275390625,0.125,9.404580152671755,-160.24427480916032,-35.18320610687023,657.6146788990826,-37.247706422018354,-5.412844036697248,,
1760472455.373804,0,0.45367431640625,0.12457275390625,0.12506103515625,9.419847328244275,-191.5114503816794,-25.412213740458014,634.1284403669725,-36.60550458715596,-5.963302752293578,,
1760472455.3845568,0,0.45379638671875,0.1246337890625,0.125,9.404580152671755,-177.8320610687023,3.9083969465648853,775.045871559633,-36.60550458715596,-5.5045871559633035,,
1760472455.40585,0,0.4539794921875,0.1243896484375,0.12506103515625,9.427480916030534,-132.8854961832061,-29.3206106870229,1127.3394495412845,-37.247706422018354,-5.229357798165138,,
1760472455.416427,0,0.4541015625,0.12457275390625,0.125,9.427480916030534,-140.70229007633588,-15.641221374045802,775.045871559633,-37.247706422018354,-5.5045871559633035,,
1760472455.4375772,0,0.45428466796875,0.12445068359375,0.1251220703125,9.412213740458014,-127.02290076335878,-15.641221374045802,845.5045871559633,-36.788990825688074,-5.137614678899083,,
1760472455.4481914,0,0.45440673828125,0.12451171875,0.12493896484375,9.412213740458014,-115.29770992366412,-35.18320610687023,610.6422018348624,-37.43119266055046,-5.229357798165138,,
1760472455.4693892,0,0.45458984375,0.12432861328125,0.12493896484375,9.435114503816793,-142.65648854961833,-41.045801526717554,446.2385321100918,-37.43119266055046,-5.779816513761468,,
1760472455.5116262,0,0.4547119140625,0.12451171875,0.125,9.419847328244275,-144.61068702290078,-37.13740458015267,352.2935779816514,-36.972477064220186,-5.137614678899083,,
1760472455.5223932,0,0.45489501953125,0.12451171875,0.125,9.435114503816793,-123.1145038167939,-29.3206106870229,540.1834862385322,-37.43119266055046,-5.688073394495413,,
1760472455.5331328,0,0.45501708984375,0.12445068359375,0.12493896484375,9.442748091603054,-117.25190839694656,-5.870229007633588,328.8073394495413,-36.972477064220186,-5.5045871559633035,,
1760472455.5754406,0,0.4552001953125,0.12445068359375,0.12506103515625,9.419847328244275,-154.38167938931298,-1.9618320610687023,469.72477064220186,-36.788990825688074,-5.5045871559633035,,
1760472455.586198,0,0.455322265625,0.12451171875,0.125,9.419847328244275,-125.06870229007633,-25.412213740458014,446.2385321100918,-37.247706422018354,-5.596330275229358,,
1760472455.597193,0,0.45550537109375,0.12451171875,0.12518310546875,9.412213740458014,-138.74809160305344,-19.549618320610687,634.1284403669725,-36.60550458715596,-5.963302752293578,,
1760472455.6080225,0,0.45562744140625,0.12451171875,0.125,9.404580152671755,-136.793893129771,-31.27480916030534,634.1284403669725,-36.69724770642202,-5.229357798165138,,
1760472455.6295795,0,0.455810546875,0.12451171875,0.1251220703125,9.412213740458014,-138.74809160305344,-41.045801526717554,634.1284403669725,-36.88073394495413,-5.963302752293578,,
1760472455.6407285,0,0.4559326171875,0.12457275390625,0.1251220703125,9.435114503816793,-152.42748091603053,-21.50381679389313,0.0,-36.788990825688074,-4.862385321100918,,
1760472455.6617622,0,0.45611572265625,0.12451171875,0.12493896484375,9.442748091603054,-148.51908396946564,-39.091603053435115,751.559633027523,-36.88073394495413,-5.321100917431193,,
1760472455.693332,0,0.45623779296875,0.12445068359375,0.12506103515625,9.412213740458014,-130.93129770992365,-54.725190839694655,587.1559633027523,-36.88073394495413,-5.596330275229358,,
1760472455.70408,0,0.4564208984375,0.12451171875,0.12493896484375,9.427480916030534,-121.16030534351145,-41.045801526717554,610.6422018348624,-36.60550458715596,-6.238532110091743,,
1760472455.725151,0,0.45654296875,0.12457275390625,0.12506103515625,9.427480916030534,-170.01526717557252,-7.824427480916031,422.7522935779817,-37.522935779816514,-5.779816513761468,,
1760472455.756949,0,0.45672607421875,0.12451171875,0.125,9.404580152671755,-162.19847328244273,-13.687022900763358,634.1284403669725,-36.88073394495413,-5.045871559633028,,
1760472455.7677383,0,0.45684814453125,0.12451171875,0.125,9.419847328244275,-197.3740458015267,-87.94656488549619,469.72477064220186,-37.3394495412844,-4.862385321100918,,
1760472455.7890053,0,0.45703125,0.12445068359375,0.12506103515625,9.412213740458014,-113.34351145038168,-58.63358778625954,328.8073394495413,-36.972477064220186,-5.779816513761468,,
1760472455.7997484,0,0.4571533203125,0.12445068359375,0.125,9.427480916030534,-156.33587786259542,3.9083969465648853,1033.3944954128442,-36.788990825688074,-5.596330275229358,,
1760472455.8210132,0,0.45733642578125,0.12445068359375,0.12493896484375,9.427480916030534,-175.87786259541986,-66.45038167938931,751.559633027523,-37.06422018348624,-5.688073394495413,,
1760472455.8526397,0,0.45745849609375,0.12451171875,0.12506103515625,9.412213740458014,-136.793893129771,-48.86259541984733,704.5871559633028,-36.69724770642202,-5.963302752293578,,
1760472455.8634071,0,0.4576416015625,0.12451171875,0.1248779296875,9.419847328244275,-119.20610687022901,-54.725190839694655,516.6972477064221,-37.15596330275229,-5.688073394495413,,
1760472455.8848388,0,0.457763671875,0.12451171875,0.12506103515625,9.435114503816793,-156.33587786259542,-48.86259541984733,775.045871559633,-37.06422018348624,-5.045871559633028,,
1760472455.8955688,0,0.45794677734375,0.12445068359375,0.12518310546875,9.419847328244275,-138.74809160305344,-37.13740458015267,375.7798165137615,-37.522935779816514,-5.596330275229358,,
1760472455.916799,0,0.45806884765625,0.12445068359375,0.125,9.412213740458014,-127.02290076335878,-37.13740458015267,610.6422018348624,-37.06422018348624,-5.137614678899083,,
1760472455.9484386,0,0.458251953125,0.12445068359375,0.12493896484375,9.404580152671755,-170.01526717557252,-31.27480916030534,493.2110091743119,-37.06422018348624,-5.871559633027523,,
1760472455.9592059,0,0.4583740234375,0.12451171875,0.12506103515625,9.442748091603054,-177.8320610687023,-31.27480916030534,775.045871559633,-37.43119266055046,-5.963302752293578,,
1760472455.9803267,0,0.45855712890625,0.12457275390625,0.12493896484375,9.427480916030534,-177.8320610687023,-37.13740458015267,469.72477064220186,-36.42201834862385,-5.5045871559633035,,
1760472456.0120053,0,0.45867919921875,0.12445068359375,0.12493896484375,9.427480916030534,-127.02290076335878,-50.81679389312977,728.0733944954129,-37.3394495412844,-5.045871559633028,,
1760472456.0227602,0,0.4588623046875,0.12457275390625,0.125,9.435114503816793,-171.96946564885496,0.0,728.0733944954129,-36.788990825688074,-5.596330275229358,,
1760472456.0437758,0,0.458984375,0.12451171875,0.12506103515625,9.427480916030534,-144.61068702290078,-46.908396946564885,610.6422018348624,-37.247706422018354,-5.688073394495413,,
1760472456.054383,0,0.45916748046875,0.12451171875,0.12493896484375,9.435114503816793,-136.793893129771,-33.229007633587784,728.0733944954129,-36.51376146788991,-5.688073394495413,,
1760472456.0758438,0,0.45928955078125,0.1246337890625,0.12506103515625,9.412213740458014,-130.93129770992365,-0.007633587786259542,540.1834862385322,-37.43119266055046,-5.5045871559633035,,
1760472456.1078355,0,0.45947265625,0.12457275390625,0.125,9.419847328244275,-125.06870229007633,-43.0,234.86238532110093,-37.15596330275229,-5.229357798165138,,
1760472456.1186051,0,0.4595947265625,0.12451171875,0.125,9.419847328244275,-142.65648854961833,-33.229007633587784,493.2110091743119,-37.43119266055046,-4.954128440366973,,
1760472456.1505787,0,0.45977783203125,0.12445068359375,0.12506103515625,9.427480916030534,-179.78625954198472,-9.778625954198473,587.1559633027523,-36.972477064220186,-5.412844036697248,,
1760472456.1614108,0,0.45989990234375,0.12457275390625,0.125,9.412213740458014,-119.20610687022901,-15.641221374045802,234.86238532110093,-36.788990825688074,-5.596330275229358,,
1760472456.1721697,0,0.4600830078125,0.12457275390625,0.1251220703125,9.412213740458014,-164.15267175572518,-7.824427480916031,728.0733944954129,-36.788990825688074,-5.871559633027523,,
1760472456.1829038,0,0.460205078125,0.12457275390625,0.125,9.419847328244275,-144.61068702290078,-54.725190839694655,728.0733944954129,-36.51376146788991,-5.045871559633028,,
1760472456.2042477,0,0.46038818359375,0.12445068359375,0.12506103515625,9.427480916030534,-128.9770992366412,-39.091603053435115,516.6972477064221,-37.15596330275229,-5.963302752293578,,
1760472456.2360864,0,0.46051025390625,0.12457275390625,0.125,9.419847328244275,-158.29007633587787,-39.091603053435115,211.37614678899084,-37.88990825688073,-5.688073394495413,,
1760472456.2469282,0,0.460693359375,0.12451171875,0.12506103515625,9.412213740458014,-154.38167938931298,-27.366412213740457,751.559633027523,-37.247706422018354,-5.5045871559633035,,
1760472456.2682166,0,0.4608154296875,0.1243896484375,0.125,9.427480916030534,-121.16030534351145,-13.687022900763358,587.1559633027523,-37.06422018348624,-4.770642201834862,,
1760472456.3000405,0,0.46099853515625,0.12451171875,0.125,9.419847328244275,-150.4732824427481,-46.908396946564885,775.045871559633,-37.06422018348624,-5.596330275229358,,
1760472456.3108282,0,0.46112060546875,0.12457275390625,0.1251220703125,9.427480916030534,-152.42748091603053,-50.81679389312977,516.6972477064221,-36.69724770642202,-5.412844036697248,,
1760472456.332265,0,0.4613037109375,0.12445068359375,0.125,9.419847328244275,-193.46564885496184,-39.091603053435115,610.6422018348624,-36.69724770642202,-5.871559633027523,,
1760472456.3641512,0,0.46142578125,0.12451171875,0.12518310546875,9.419847328244275,-93.80152671755725,-46.908396946564885,305.3211009174312,-36.88073394495413,-5.871559633027523,,
1760472456.3749163,0,0.46160888671875,0.12457275390625,0.125,9.435114503816793,-128.9770992366412,-46.908396946564885,140.91743119266056,-36.788990825688074,-5.229357798165138,,
1760472456.3963242,0,0.46173095703125,0.12457275390625,0.125,9.427480916030534,-132.8854961832061,-29.3206106870229,751.559633027523,-36.88073394495413,-4.954128440366973,,
1760472456.4071457,0,0.4619140625,0.12451171875,0.125,9.427480916030534,-142.65648854961833,-37.13740458015267,822.0183486238533,-36.972477064220186,-5.229357798165138,,
1760472456.4390192,0,0.4620361328125,0.12451171875,0.12493896484375,9.427480916030534,-154.38167938931298,-25.412213740458014,352.2935779816514,-37.06422018348624,-5.321100917431193,,
1760472456.4498749,0,0.46221923828125,0.12457275390625,0.125,9.404580152671755,-160.24427480916032,-64.49618320610686,634.1284403669725,-36.972477064220186,-5.963302752293578,,
1760472456.4711258,0,0.46234130859375,0.12451171875,0.12506103515625,9.419847328244275,-144.61068702290078,-3.9160305343511452,610.6422018348624,-37.522935779816514,-5.137614678899083,,
1760472456.4818637,0,0.4625244140625,0.12445068359375,0.12493896484375,9.427480916030534,-158.29007633587787,-46.908396946564885,610.6422018348624,-37.15596330275229,-5.045871559633028,,
1760472456.5031478,0,0.462646484375,0.12445068359375,0.12506103515625,9.419847328244275,-168.06106870229007,-48.86259541984733,258.34862385321105,-36.88073394495413,-5.412844036697248,,
1760472456.535036,0,0.46282958984375,0.12445068359375,0.12506103515625,9.419847328244275,-132.8854961832061,-25.412213740458014,493.2110091743119,-37.706422018348626,-5.321100917431193,,
1760472456.545682,0,0.46295166015625,0.12457275390625,0.125,9.419847328244275,-121.16030534351145,1.9541984732824427,399.26605504587155,-37.06422018348624,-5.596330275229358,,
1760472456.5670147,0,0.463134765625,0.12457275390625,0.12506103515625,9.435114503816793,-187.6030534351145,-19.549618320610687,939.4495412844037,-36.972477064220186,-5.779816513761468,,
1760472456.5988433,0,0.4632568359375,0.12457275390625,0.1251220703125,9.435114503816793,-144.61068702290078,-37.13740458015267,399.26605504587155,-36.60550458715596,-5.871559633027523,,
1760472456.6095371,0,0.46343994140625,0.12457275390625,0.12506103515625,9.427480916030534,-189.55725190839695,-35.18320610687023,798.5321100917431,-36.972477064220186,-5.137614678899083,,
1760472456.631027,0,0.46356201171875,0.12445068359375,0.1251220703125,9.412213740458014,-136.793893129771,-44.954198473282446,328.8073394495413,-38.07339449541284,-5.045871559633028,,
1760472456.641827,0,0.4637451171875,0.12445068359375,0.12506103515625,9.412213740458014,-142.65648854961833,-39.091603053435115,469.72477064220186,-36.972477064220186,-5.5045871559633035,,
1760472456.6632488,0,0.4638671875,0.12451171875,0.12506103515625,9.419847328244275,-154.38167938931298,-52.770992366412216,681.1009174311927,-36.972477064220186,-5.412844036697248,,
1760472456.6950884,0,0.46405029296875,0.12451171875,0.1251220703125,9.412213740458014,-134.83969465648855,-33.229007633587784,892.4770642201836,-36.51376146788991,-5.412844036697248,,
1760472456.7058847,0,0.46417236328125,0.12451171875,0.125,9.412213740458014,-152.42748091603053,-33.229007633587784,634.1284403669725,-36.972477064220186,-5.779816513761468,,
1760472456.7272096,0,0.46435546875,0.12445068359375,0.12506103515625,9.427480916030534,-150.4732824427481,-48.86259541984733,563.6697247706422,-38.07339449541284,-5.321100917431193,,
1760472456.7590902,0,0.4644775390625,0.12457275390625,0.12493896484375,9.412213740458014,-128.9770992366412,-43.0,610.6422018348624,-37.06422018348624,-5.688073394495413,,
1760472456.769888,0,0.46466064453125,0.12451171875,0.125,9.419847328244275,-119.20610687022901,-64.49618320610686,422.7522935779817,-36.88073394495413,-5.596330275229358,,
1760472456.7912464,0,0.46478271484375,0.12451171875,0.1251220703125,9.412213740458014,-175.87786259541986,-56.6793893129771,610.6422018348624,-36.60550458715596,-5.321100917431193,,
1760472456.8230896,0,0.4649658203125,0.12445068359375,0.125,9.427480916030534,-144.61068702290078,-39.091603053435115,587.1559633027523,-37.06422018348624,-5.688073394495413,,
1760472456.833922,0,0.465087890625,0.12457275390625,0.12506103515625,9.427480916030534,-152.42748091603053,-52.770992366412216,610.6422018348624,-37.06422018348624,-5.5045871559633035,,
1760472456.855372,0,0.46527099609375,0.12451171875,0.12506103515625,9.427480916030534,-121.16030534351145,-5.870229007633588,822.0183486238533,-37.3394495412844,-5.137614678899083,,
1760472456.8661268,0,0.46539306640625,0.12451171875,0.1248779296875,9.412213740458014,-111.38931297709924,-17.595419847328245,469.72477064220186,-37.706422018348626,-5.045871559633028,,
1760472456.887544,0,0.465576171875,0.12451171875,0.125,9.419847328244275,-158.29007633587787,-70.3587786259542,939.4495412844037,-37.247706422018354,-5.321100917431193,,
1760472456.8983676,0,0.4656982421875,0.12451171875,0.125,9.419847328244275,-158.29007633587787,-15.641221374045802,610.6422018348624,-36.788990825688074,-5.137614678899083,,
1760472456.909288,0,0.46588134765625,0.12445068359375,0.12493896484375,9.419847328244275,-125.06870229007633,-41.045801526717554,540.1834862385322,-37.06422018348624,-5.321100917431193,,
1760472456.941119,0,0.46600341796875,0.12445068359375,0.12518310546875,9.404580152671755,-127.02290076335878,-50.81679389312977,610.6422018348624,-37.43119266055046,-5.412844036697248,,
1760472456.951953,0,0.4661865234375,0.12451171875,0.12506103515625,9.427480916030534,-152.42748091603053,-27.366412213740457,516.6972477064221,-36.88073394495413,-5.412844036697248,,
1760472456.973358,0,0.46630859375,0.1246337890625,0.12506103515625,9.442748091603054,-148.51908396946564,-29.3206106870229,657.6146788990826,-37.706422018348626,-5.596330275229358,,
1760472457.0051622,0,0.46649169921875,0.1246337890625,0.125,9.419847328244275,-170.01526717557252,-27.366412213740457,23.486238532110093,-36.42201834862385,-5.229357798165138,,
1760472457.0159066,0,0.46661376953125,0.12457275390625,0.125,9.419847328244275,-152.42748091603053,-35.18320610687023,681.1009174311927,-37.247706422018354,-6.055045871559633,,
1760472457.0371726,0,0.466796875,0.12451171875,0.125,9.419847328244275,-117.25190839694656,-35.18320610687023,634.1284403669725,-37.61467889908257,-5.596330275229358,,
1760472457.047926,0,0.4669189453125,0.12451171875,0.1251220703125,9.419847328244275,-177.8320610687023,-37.13740458015267,775.045871559633,-37.15596330275229,-6.146788990825688,,
1760472457.0692856,0,0.46710205078125,0.12457275390625,0.12493896484375,9.419847328244275,-142.65648854961833,-54.725190839694655,587.1559633027523,-37.15596330275229,-5.412844036697248,,
1760472457.1011682,0,0.46722412109375,0.12451171875,0.125,9.419847328244275,-142.65648854961833,-25.412213740458014,328.8073394495413,-36.788990825688074,-5.5045871559633035,,
1760472457.1119127,0,0.4674072265625,0.12451171875,0.125,9.419847328244275,-164.15267175572518,-21.50381679389313,704.5871559633028,-37.247706422018354,-5.5045871559633035,,
1760472457.1331863,0,0.467529296875,0.1246337890625,0.125244140625,9.427480916030534,-168.06106870229007,-35.18320610687023,422.7522935779817,-36.69724770642202,-5.229357798165138,,
1760472457.165091,0,0.46771240234375,0.12469482421875,0.12506103515625,9.427480916030534,-144.61068702290078,-27.366412213740457,704.5871559633028,-36.972477064220186,-6.238532110091743,,
1760472457.1759162,0,0.46783447265625,0.12445068359375,0.1251220703125,9.419847328244275,-154.38167938931298,-23.458015267175572,775.045871559633,-37.06422018348624,-5.596330275229358,,
1760472457.1973462,0,0.468017578125,0.12451171875,0.12493896484375,9.435114503816793,-160.24427480916032,-46.908396946564885,422.7522935779817,-37.43119266055046,-5.229357798165138,,
1760472457.2081466,0,0.4681396484375,0.12445068359375,0.12493896484375,9.427480916030534,-140.70229007633588,-44.954198473282446,775.045871559633,-36.69724770642202,-4.954128440366973,,
1760472457.229537,0,0.46832275390625,0.12457275390625,0.12506103515625,9.435114503816793,-134.83969465648855,-31.27480916030534,634.1284403669725,-37.06422018348624,-5.688073394495413,,
1760472457.250879,0,0.46844482421875,0.12451171875,0.12518310546875,9.427480916030534,-127.02290076335878,-17.595419847328245,587.1559633027523,-37.15596330275229,-5.963302752293578,,
1760472457.2618198,0,0.4686279296875,0.12445068359375,0.12506103515625,9.412213740458014,-166.10687022900763,-76.22137404580153,868.9908256880734,-36.23853211009174,-5.5045871559633035,,
1760472457.2832227,0,0.46875,0.12445068359375,0.12506103515625,9.442748091603054,-150.4732824427481,-23.458015267175572,610.6422018348624,-37.43119266055046,-5.596330275229358,,
1760472457.3151445,0,0.46893310546875,0.12451171875,0.1251220703125,9.404580152671755,-175.87786259541986,-9.778625954198473,352.2935779816514,-36.51376146788991,-5.321100917431193,,
1760472457.3259254,0,0.46905517578125,0.12445068359375,0.125,9.419847328244275,-138.74809160305344,-7.824427480916031,915.9633027522937,-37.43119266055046,-5.137614678899083,,
1760472457.3473887,0,0.46923828125,0.12457275390625,0.12493896484375,9.435114503816793,-128.9770992366412,-25.412213740458014,422.7522935779817,-37.706422018348626,-5.688073394495413,,
1760472457.3792958,0,0.4693603515625,0.12457275390625,0.1251220703125,9.435114503816793,-166.10687022900763,-7.824427480916031,939.4495412844037,-36.88073394495413,-5.688073394495413,,
1760472457.3901005,0,0.46954345703125,0.12445068359375,0.12493896484375,9.427480916030534,-146.5648854961832,-21.50381679389313,962.9357798165138,-37.06422018348624,-5.963302752293578,,
1760472457.4114974,0,0.46966552734375,0.12451171875,0.1251220703125,9.412213740458014,-115.29770992366412,-41.045801526717554,704.5871559633028,-37.247706422018354,-5.596330275229358,,
1760472457.4221957,0,0.4698486328125,0.12445068359375,0.12506103515625,9.404580152671755,-134.83969465648855,-21.50381679389313,540.1834862385322,-36.3302752293578,-5.229357798165138,,
1760472457.443463,0,0.469970703125,0.12451171875,0.12493896484375,9.419847328244275,-152.42748091603053,-48.86259541984733,493.2110091743119,-37.15596330275229,-5.045871559633028,,
1760472457.4750772,0,0.47015380859375,0.12451171875,0.12506103515625,9.419847328244275,-158.29007633587787,-31.27480916030534,728.0733944954129,-37.06422018348624,-5.321100917431193,,
1760472457.4857802,0,0.47027587890625,0.12451171875,0.12506103515625,9.427480916030534,-146.5648854961832,-41.045801526717554,704.5871559633028,-36.88073394495413,-5.596330275229358,,
1760472457.5069437,0,0.470458984375,0.12451171875,0.125,9.412213740458014,-168.06106870229007,-48.86259541984733,751.559633027523,-36.972477064220186,-5.779816513761468,,
1760472457.51757,0,0.4705810546875,0.1243896484375,0.12506103515625,9.419847328244275,-189.55725190839695,-50.81679389312977,704.5871559633028,-36.88073394495413,-5.412844036697248,,
1760472457.538878,0,0.47076416015625,0.12451171875,0.125,9.419847328244275,-164.15267175572518,-17.595419847328245,634.1284403669725,-37.15596330275229,-4.587155963302752,,
1760472457.5705998,0,0.47088623046875,0.12451171875,0.125,9.412213740458014,-136.793893129771,-1.9618320610687023,516.6972477064221,-37.247706422018354,-5.688073394495413,,
1760472457.5813422,0,0.4710693359375,0.1243896484375,0.12493896484375,9.419847328244275,-140.70229007633588,-29.3206106870229,775.045871559633,-37.15596330275229,-5.137614678899083,,
1760472457.602643,0,0.47119140625,0.12457275390625,0.12493896484375,9.419847328244275,-171.96946564885496,-50.81679389312977,751.559633027523,-37.3394495412844,-5.137614678899083,,
1760472457.6135657,0,0.47137451171875,0.12445068359375,0.125,9.419847328244275,-154.38167938931298,-50.81679389312977,681.1009174311927,-37.06422018348624,-5.137614678899083,,
1760472457.63512,0,0.47149658203125,0.12451171875,0.125,9.404580152671755,-134.83969465648855,-27.366412213740457,822.0183486238533,-37.06422018348624,-5.412844036697248,,
1760472457.6775098,0,0.4716796875,0.12445068359375,0.125,9.435114503816793,-138.74809160305344,-54.725190839694655,610.6422018348624,-37.3394495412844,-5.596330275229358,,
1760472457.688278,0,0.4718017578125,0.12451171875,0.12493896484375,9.419847328244275,-156.33587786259542,-56.6793893129771,798.5321100917431,-37.247706422018354,-5.321100917431193,,
1760472457.7097945,0,0.47198486328125,0.12451171875,0.125,9.435114503816793,-127.02290076335878,-41.045801526717554,751.559633027523,-36.972477064220186,-5.596330275229358,,
1760472457.7415047,0,0.47210693359375,0.1246337890625,0.12493896484375,9.419847328244275,-144.61068702290078,-41.045801526717554,399.26605504587155,-37.06422018348624,-5.688073394495413,,
1760472457.752182,0,0.4722900390625,0.12445068359375,0.125,9.419847328244275,-132.8854961832061,-56.6793893129771,704.5871559633028,-37.15596330275229,-4.862385321100918,,
1760472457.762855,0,0.472412109375,0.12457275390625,0.12506103515625,9.419847328244275,-148.51908396946564,-50.81679389312977,610.6422018348624,-36.69724770642202,-5.5045871559633035,,
1760472457.7735822,0,0.47259521484375,0.12445068359375,0.125,9.419847328244275,-156.33587786259542,-23.458015267175572,446.2385321100918,-37.15596330275229,-4.862385321100918,,
1760472457.8051713,0,0.47271728515625,0.12445068359375,0.12493896484375,9.412213740458014,-154.38167938931298,-17.595419847328245,634.1284403669725,-36.88073394495413,-5.321100917431193,,
1760472457.8157554,0,0.472900390625,0.12445068359375,0.125,9.404580152671755,-158.29007633587787,-7.824427480916031,516.6972477064221,-36.3302752293578,-5.412844036697248,,
1760472457.8370597,0,0.4730224609375,0.12445068359375,0.1251220703125,9.404580152671755,-125.06870229007633,-64.49618320610686,281.8348623853211,-37.247706422018354,-5.321100917431193,,
1760472457.868812,0,0.47320556640625,0.12445068359375,0.12506103515625,9.419847328244275,-166.10687022900763,-52.770992366412216,610.6422018348624,-36.69724770642202,-5.779816513761468,,
1760472457.8796113,0,0.47332763671875,0.12445068359375,0.12493896484375,9.427480916030534,-148.51908396946564,-46.908396946564885,540.1834862385322,-37.06422018348624,-5.871559633027523,,
1760472457.9013515,0,0.4735107421875,0.12451171875,0.12506103515625,9.396946564885496,-166.10687022900763,-39.091603053435115,751.559633027523,-36.972477064220186,-5.779816513761468,,
1760472457.9120972,0,0.4736328125,0.12451171875,0.12506103515625,9.412213740458014,-189.55725190839695,-13.687022900763358,375.7798165137615,-37.43119266055046,-5.688073394495413,,
1760472457.964533,0,0.47381591796875,0.12445068359375,0.12493896484375,9.427480916030534,-128.9770992366412,-44.954198473282446,775.045871559633,-36.972477064220186,-5.596330275229358,,
1760472457.975296,0,0.47393798828125,0.12445068359375,0.12506103515625,9.419847328244275,-160.24427480916032,-27.366412213740457,868.9908256880734,-37.15596330275229,-5.779816513761468,,
1760472457.9860961,0,0.47412109375,0.12451171875,0.12506103515625,9.419847328244275,-107.48091603053435,-31.27480916030534,422.7522935779817,-36.972477064220186,-5.5045871559633035,,
1760472457.9970136,0,0.4742431640625,0.12445068359375,0.12518310546875,9.427480916030534,-152.42748091603053,-48.86259541984733,446.2385321100918,-36.788990825688074,-4.770642201834862,,
1760472458.0078104,0,0.47442626953125,0.12445068359375,0.12493896484375,9.412213740458014,-162.19847328244273,-54.725190839694655,868.9908256880734,-37.522935779816514,-5.137614678899083,,
1760472458.0291197,0,0.47454833984375,0.1243896484375,0.12506103515625,9.419847328244275,-142.65648854961833,-11.732824427480915,657.6146788990826,-37.247706422018354,-5.229357798165138,,
1760472458.0503795,0,0.4747314453125,0.12457275390625,0.12506103515625,9.404580152671755,-152.42748091603053,-1.9618320610687023,610.6422018348624,-36.972477064220186,-5.871559633027523,,
1760472458.061168,0,0.474853515625,0.12457275390625,0.12493896484375,9.419847328244275,-140.70229007633588,-46.908396946564885,634.1284403669725,-37.3394495412844,-6.055045871559633,,
1760472458.0824878,0,0.47503662109375,0.1243896484375,0.125,9.404580152671755,-142.65648854961833,-15.641221374045802,493.2110091743119,-37.15596330275229,-5.412844036697248,,
1760472458.1144059,0,0.47515869140625,0.1243896484375,0.12493896484375,9.427480916030534,-171.96946564885496,-43.0,446.2385321100918,-36.788990825688074,-5.596330275229358,,
1760472458.1250818,0,0.475341796875,0.12451171875,0.12506103515625,9.427480916030534,-130.93129770992365,-37.13740458015267,493.2110091743119,-37.3394495412844,-5.412844036697248,,
1760472458.1464653,0,0.4754638671875,0.12445068359375,0.12506103515625,9.435114503816793,-142.65648854961833,-19.549618320610687,540.1834862385322,-36.69724770642202,-5.321100917431193,,
1760472458.1573098,0,0.47564697265625,0.12451171875,0.12493896484375,9.419847328244275,-150.4732824427481,-39.091603053435115,563.6697247706422,-36.88073394495413,-5.779816513761468,,
1760472458.1785593,0,0.47576904296875,0.12451171875,0.12506103515625,9.419847328244275,-154.38167938931298,-46.908396946564885,798.5321100917431,-37.61467889908257,-5.779816513761468,,
1760472458.2103333,0,0.4759521484375,0.12451171875,0.125,9.419847328244275,-123.1145038167939,-50.81679389312977,681.1009174311927,-37.15596330275229,-5.871559633027523,,
1760472458.242141,0,0.47607421875,0.1243896484375,0.125,9.404580152671755,-138.74809160305344,9.770992366412214,822.0183486238533,-36.972477064220186,-5.871559633027523,,
1760472458.252904,0,0.47625732421875,0.12457275390625,0.125,9.435114503816793,-142.65648854961833,-37.13740458015267,328.8073394495413,-36.60550458715596,-5.5045871559633035,,
1760472458.2741349,0,0.47637939453125,0.12445068359375,0.12506103515625,9.435114503816793,-132.8854961832061,1.9541984732824427,751.559633027523,-37.247706422018354,-5.321100917431193,,
1760472458.2848804,0,0.4765625,0.12451171875,0.1251220703125,9.427480916030534,-127.02290076335878,-19.549618320610687,845.5045871559633,-36.788990825688074,-5.688073394495413,,
1760472458.3061578,0,0.4766845703125,0.12457275390625,0.12506103515625,9.419847328244275,-138.74809160305344,-39.091603053435115,657.6146788990826,-36.69724770642202,-5.5045871559633035,,
1760472458.316902,0,0.47686767578125,0.12445068359375,0.12493896484375,9.412213740458014,-132.8854961832061,-17.595419847328245,751.559633027523,-37.06422018348624,-5.688073394495413,,
1760472458.3382485,0,0.47698974609375,0.12451171875,0.125,9.419847328244275,-154.38167938931298,-23.458015267175572,962.9357798165138,-37.98165137614679,-5.137614678899083,,
1760472458.370262,0,0.4771728515625,0.12457275390625,0.1251220703125,9.412213740458014,-166.10687022900763,-62.541984732824424,775.045871559633,-36.51376146788991,-5.963302752293578,,
1760472458.3809988,0,0.477294921875,0.12451171875,0.125,9.419847328244275,-179.78625954198472,-13.687022900763358,751.559633027523,-37.15596330275229,-5.137614678899083,,
1760472458.4023445,0,0.47747802734375,0.12451171875,0.125,9.412213740458014,-134.83969465648855,-15.641221374045802,634.1284403669725,-36.42201834862385,-5.779816513761468,,
1760472458.4342673,0,0.47760009765625,0.12457275390625,0.12493896484375,9.412213740458014,-158.29007633587787,-1.9618320610687023,563.6697247706422,-36.88073394495413,-5.871559633027523,,
1760472458.444995,0,0.477783203125,0.12445068359375,0.125,9.427480916030534,-138.74809160305344,5.862595419847328,187.88990825688074,-37.522935779816514,-5.229357798165138,,
1760472458.4662886,0,0.4779052734375,0.12451171875,0.125,9.404580152671755,-144.61068702290078,-43.0,892.4770642201836,-37.06422018348624,-5.596330275229358,,
1760472458.4770358,0,0.47808837890625,0.12451171875,0.12493896484375,9.435114503816793,-138.74809160305344,-33.229007633587784,657.6146788990826,-36.788990825688074,-5.321100917431193,,
1760472458.4984727,0,0.47821044921875,0.12451171875,0.125,9.435114503816793,-136.793893129771,-70.3587786259542,775.045871559633,-37.3394495412844,-5.321100917431193,,
1760472458.5307267,0,0.4783935546875,0.12451171875,0.125,9.427480916030534,-127.02290076335878,-15.641221374045802,657.6146788990826,-36.69724770642202,-5.963302752293578,,
1760472458.5414417,0,0.478515625,0.12451171875,0.12506103515625,9.435114503816793,-156.33587786259542,-25.412213740458014,657.6146788990826,-37.06422018348624,-5.412844036697248,,
1760472458.552222,0,0.47869873046875,0.12451171875,0.125,9.435114503816793,-158.29007633587787,-50.81679389312977,446.2385321100918,-36.60550458715596,-5.688073394495413,,
1760472458.5840473,0,0.47882080078125,0.12445068359375,0.125,9.427480916030534,-148.51908396946564,-3.9160305343511452,704.5871559633028,-37.61467889908257,-5.779816513761468,,
1760472458.5948124,0,0.47900390625,0.1243896484375,0.125,9.419847328244275,-150.4732824427481,-78.17557251908397,798.5321100917431,-37.15596330275229,-5.688073394495413,,
1760472458.6160386,0,0.4791259765625,0.12457275390625,0.12493896484375,9.427480916030534,-117.25190839694656,-52.770992366412216,704.5871559633028,-37.3394495412844,-5.229357798165138,,
1760472458.6270254,0,0.47930908203125,0.12451171875,0.12493896484375,9.435114503816793,-142.65648854961833,-37.13740458015267,845.5045871559633,-36.972477064220186,-5.779816513761468,,
1760472458.6482348,0,0.47943115234375,0.12451171875,0.1251220703125,9.419847328244275,-113.34351145038168,13.679389312977099,516.6972477064221,-37.15596330275229,-5.321100917431193,,
1760472458.6802833,0,0.4796142578125,0.12445068359375,0.125,9.412213740458014,-144.61068702290078,-35.18320610687023,516.6972477064221,-37.06422018348624,-5.596330275229358,,
1760472458.691361,0,0.479736328125,0.12445068359375,0.125,9.412213740458014,-144.61068702290078,-50.81679389312977,634.1284403669725,-37.43119266055046,-5.412844036697248,,
1760472458.7133873,0,0.47991943359375,0.12451171875,0.12506103515625,9.435114503816793,-130.93129770992365,-41.045801526717554,399.26605504587155,-36.788990825688074,-5.412844036697248,,
1760472458.744793,0,0.48004150390625,0.12451171875,0.125,9.442748091603054,-164.15267175572518,-11.732824427480915,516.6972477064221,-36.972477064220186,-5.321100917431193,,
1760472458.75551,0,0.480224609375,0.12445068359375,0.125,9.419847328244275,-132.8854961832061,-39.091603053435115,845.5045871559633,-37.15596330275229,-5.596330275229358,,
1760472458.7768116,0,0.4803466796875,0.12451171875,0.125,9.412213740458014,-119.20610687022901,-21.50381679389313,845.5045871559633,-36.42201834862385,-5.5045871559633035,,
1760472458.7874954,0,0.48052978515625,0.12451171875,0.125,9.419847328244275,-148.51908396946564,-15.641221374045802,1009.908256880734,-37.247706422018354,-5.688073394495413,,
1760472458.8087685,0,0.48065185546875,0.1246337890625,0.1251220703125,9.419847328244275,-175.87786259541986,-46.908396946564885,375.7798165137615,-36.788990825688074,-5.321100917431193,,
1760472458.8403697,0,0.4808349609375,0.12451171875,0.12506103515625,9.412213740458014,-148.51908396946564,-29.3206106870229,328.8073394495413,-36.88073394495413,-5.137614678899083,,
1760472458.861689,0,0.48095703125,0.12457275390625,0.125,9.419847328244275,-152.42748091603053,-13.687022900763358,540.1834862385322,-36.972477064220186,-5.688073394495413,,
1760472458.8724291,0,0.48114013671875,0.12451171875,0.1251220703125,9.427480916030534,-150.4732824427481,-27.366412213740457,446.2385321100918,-36.51376146788991,-5.321100917431193,,
1760472458.8936796,0,0.48126220703125,0.12451171875,0.125,9.435114503816793,-146.5648854961832,9.770992366412214,540.1834862385322,-36.972477064220186,-5.045871559633028,,
1760472458.9255044,0,0.4814453125,0.12445068359375,0.12493896484375,9.435114503816793,-130.93129770992365,-19.549618320610687,775.045871559633,-36.42201834862385,-5.596330275229358,,
1760472458.9363337,0,0.4815673828125,0.12445068359375,0.125,9.419847328244275,-166.10687022900763,-33.229007633587784,728.0733944954129,-37.15596330275229,-5.688073394495413,,
1760472458.947126,0,0.48175048828125,0.12451171875,0.125,9.435114503816793,-148.51908396946564,-52.770992366412216,446.2385321100918,-36.972477064220186,-5.688073394495413,,
1760472458.9684713,0,0.48187255859375,0.12451171875,0.125,9.427480916030534,-150.4732824427481,-21.50381679389313,563.6697247706422,-36.972477064220186,-5.596330275229358,,
1760472459.0002658,0,0.4820556640625,0.12451171875,0.12493896484375,9.419847328244275,-134.83969465648855,-3.9160305343511452,634.1284403669725,-37.3394495412844,-5.5045871559633035,,
1760472459.0109973,0,0.482177734375,0.12451171875,0.12506103515625,9.412213740458014,-150.4732824427481,-37.13740458015267,422.7522935779817,-36.51376146788991,-5.229357798165138,,
1760472459.0323482,0,0.48236083984375,0.12451171875,0.125,9.412213740458014,-199.32824427480915,-29.3206106870229,422.7522935779817,-37.15596330275229,-5.871559633027523,,
1760472459.0431192,0,0.48248291015625,0.12451171875,0.12493896484375,9.435114503816793,-128.9770992366412,-0.007633587786259542,399.26605504587155,-36.972477064220186,-5.5045871559633035,,
1760472459.0645304,0,0.482666015625,0.12451171875,0.12506103515625,9.435114503816793,-140.70229007633588,-41.045801526717554,681.1009174311927,-37.3394495412844,-6.422018348623854,,
1760472459.096382,0,0.4827880859375,0.12445068359375,0.12506103515625,9.427480916030534,-132.8854961832061,-7.824427480916031,798.5321100917431,-36.69724770642202,-5.321100917431193,,
1760472459.1071503,0,0.48297119140625,0.12445068359375,0.12506103515625,9.404580152671755,-140.70229007633588,-29.3206106870229,540.1834862385322,-37.15596330275229,-5.137614678899083,,
1760472459.128503,0,0.48309326171875,0.12457275390625,0.125,9.412213740458014,-154.38167938931298,-23.458015267175572,704.5871559633028,-37.06422018348624,-5.229357798165138,,
1760472459.139276,0,0.4832763671875,0.12451171875,0.125,9.442748091603054,-101.61832061068702,-19.549618320610687,798.5321100917431,-37.247706422018354,-5.321100917431193,,
1760472459.1605768,0,0.4833984375,0.12451171875,0.1251220703125,9.427480916030534,-154.38167938931298,-33.229007633587784,728.0733944954129,-36.60550458715596,-5.321100917431193,,
1760472459.1924722,0,0.48358154296875,0.12451171875,0.1251220703125,9.435114503816793,-154.38167938931298,-41.045801526717554,986.4220183486239,-36.788990825688074,-5.5045871559633035,,
1760472459.203257,0,0.48370361328125,0.12457275390625,0.12506103515625,9.412213740458014,-144.61068702290078,-31.27480916030534,234.86238532110093,-36.69724770642202,-5.779816513761468,,
1760472459.2245908,0,0.48388671875,0.12445068359375,0.12506103515625,9.419847328244275,-158.29007633587787,-39.091603053435115,469.72477064220186,-37.06422018348624,-5.412844036697248,,
1760472459.2459252,0,0.4840087890625,0.1243896484375,0.125,9.412213740458014,-189.55725190839695,-25.412213740458014,375.7798165137615,-37.43119266055046,-4.862385321100918,,
1760472459.2567866,0,0.48419189453125,0.12451171875,0.125,9.412213740458014,-193.46564885496184,-46.908396946564885,469.72477064220186,-36.972477064220186,-5.412844036697248,,
1760472459.278135,0,0.48431396484375,0.12445068359375,0.12506103515625,9.419847328244275,-162.19847328244273,-50.81679389312977,540.1834862385322,-37.43119266055046,-5.688073394495413,,
1760472459.288884,0,0.4844970703125,0.12457275390625,0.12493896484375,9.419847328244275,-123.1145038167939,-31.27480916030534,681.1009174311927,-36.42201834862385,-5.688073394495413,,
1760472459.3101861,0,0.484619140625,0.12451171875,0.1251220703125,9.435114503816793,-127.02290076335878,-39.091603053435115,634.1284403669725,-37.61467889908257,-5.412844036697248,,
1760472459.3420014,0,0.48480224609375,0.12451171875,0.1251220703125,9.404580152671755,-154.38167938931298,-23.458015267175572,563.6697247706422,-37.15596330275229,-5.321100917431193,,
1760472459.35276,0,0.48492431640625,0.12457275390625,0.12506103515625,9.412213740458014,-125.06870229007633,-29.3206106870229,1150.8256880733945,-37.43119266055046,-5.412844036697248,,
1760472459.3740888,0,0.485107421875,0.12457275390625,0.12506103515625,9.419847328244275,-125.06870229007633,-62.541984732824424,516.6972477064221,-36.972477064220186,-5.688073394495413,,
1760472459.4059908,0,0.4852294921875,0.12451171875,0.12493896484375,9.419847328244275,-158.29007633587787,-56.6793893129771,634.1284403669725,-36.972477064220186,-5.871559633027523,,
1760472459.416732,0,0.48541259765625,0.12457275390625,0.12518310546875,9.412213740458014,-140.70229007633588,-25.412213740458014,587.1559633027523,-37.247706422018354,-6.146788990825688,,
1760472459.4380956,0,0.48553466796875,0.12457275390625,0.125,9.412213740458014,-138.74809160305344,-7.824427480916031,728.0733944954129,-36.69724770642202,-5.229357798165138,,
1760472459.470006,0,0.4857177734375,0.12457275390625,0.12506103515625,9.427480916030534,-138.74809160305344,-58.63358778625954,328.8073394495413,-37.06422018348624,-5.596330275229358,,
1760472459.4807885,0,0.48583984375,0.12445068359375,0.1251220703125,9.412213740458014,-164.15267175572518,-39.091603053435115,657.6146788990826,-36.69724770642202,-4.954128440366973,,
1760472459.502099,0,0.48602294921875,0.12445068359375,0.12493896484375,9.427480916030534,-140.70229007633588,-46.908396946564885,657.6146788990826,-37.522935779816514,-5.688073394495413,,
1760472459.5129023,0,0.48614501953125,0.12451171875,0.125,9.442748091603054,-130.93129770992365,-27.366412213740457,563.6697247706422,-37.247706422018354,-5.963302752293578,,
1760472459.5343382,0,0.486328125,0.12451171875,0.12506103515625,9.404580152671755,-117.25190839694656,-56.6793893129771,587.1559633027523,-36.972477064220186,-5.871559633027523,,
1760472459.56621,0,0.4864501953125,0.12445068359375,0.12493896484375,9.419847328244275,-119.20610687022901,-44.954198473282446,540.1834862385322,-37.247706422018354,-5.5045871559633035,,
1760472459.576915,0,0.48663330078125,0.12457275390625,0.12493896484375,9.427480916030534,-119.20610687022901,-37.13740458015267,704.5871559633028,-37.06422018348624,-5.321100917431193,,
1760472459.5983346,0,0.48675537109375,0.12457275390625,0.12506103515625,9.442748091603054,-152.42748091603053,-35.18320610687023,751.559633027523,-37.61467889908257,-4.862385321100918,,
1760472459.6090693,0,0.4869384765625,0.12451171875,0.12518310546875,9.412213740458014,-136.793893129771,-60.587786259541986,634.1284403669725,-37.15596330275229,-5.688073394495413,,
1760472459.6304376,0,0.487060546875,0.12451171875,0.12506103515625,9.412213740458014,-142.65648854961833,-13.687022900763358,892.4770642201836,-36.788990825688074,-5.779816513761468,,
1760472459.6622443,0,0.48724365234375,0.12451171875,0.12493896484375,9.419847328244275,-158.29007633587787,3.9083969465648853,375.7798165137615,-37.3394495412844,-6.055045871559633,,
1760472459.6730022,0,0.48736572265625,0.12451171875,0.12506103515625,9.427480916030534,-154.38167938931298,-21.50381679389313,845.5045871559633,-36.60550458715596,-5.412844036697248,,
1760472459.6836278,0,0.487548828125,0.12457275390625,0.125,9.419847328244275,-136.793893129771,-21.50381679389313,563.6697247706422,-37.15596330275229,-5.321100917431193,,
1760472459.7153783,0,0.4876708984375,0.12451171875,0.12493896484375,9.419847328244275,-158.29007633587787,-25.412213740458014,493.2110091743119,-37.06422018348624,-5.045871559633028,,
1760472459.726307,0,0.48785400390625,0.12445068359375,0.12493896484375,9.427480916030534,-140.70229007633588,-39.091603053435115,704.5871559633028,-37.61467889908257,-5.229357798165138,,
1760472459.7479765,0,0.48797607421875,0.1246337890625,0.1251220703125,9.412213740458014,-123.1145038167939,-35.18320610687023,868.9908256880734,-37.706422018348626,-5.137614678899083,,
1760472459.7587674,0,0.4881591796875,0.12451171875,0.12493896484375,9.404580152671755,-132.8854961832061,-27.366412213740457,516.6972477064221,-36.788990825688074,-5.871559633027523,,
1760472459.7902763,0,0.48828125,0.12445068359375,0.1251220703125,9.427480916030534,-168.06106870229007,-33.229007633587784,469.72477064220186,-36.69724770642202,-5.596330275229358,,
1760472459.811824,0,0.48846435546875,0.12451171875,0.125,9.427480916030534,-130.93129770992365,-44.954198473282446,1033.3944954128442,-36.788990825688074,-5.137614678899083,,
1760472459.8224363,0,0.48858642578125,0.12445068359375,0.125,9.419847328244275,-183.6946564885496,-50.81679389312977,587.1559633027523,-37.247706422018354,-4.954128440366973,,
1760472459.8435163,0,0.48876953125,0.12445068359375,0.125,9.419847328244275,-166.10687022900763,-9.778625954198473,422.7522935779817,-36.788990825688074,-5.229357798165138,,
1760472459.8857267,0,0.4888916015625,0.12451171875,0.125,9.412213740458014,-162.19847328244273,-1.9618320610687023,728.0733944954129,-37.43119266055046,-6.238532110091743,,
1760472459.8962479,0,0.48907470703125,0.12451171875,0.125,9.442748091603054,-152.42748091603053,-37.13740458015267,587.1559633027523,-37.06422018348624,-6.330275229357799,,
1760472459.9173026,0,0.48919677734375,0.1246337890625,0.12493896484375,9.412213740458014,-121.16030534351145,-31.27480916030534,516.6972477064221,-37.06422018348624,-5.688073394495413,,
1760472459.9280484,0,0.4893798828125,0.12451171875,0.1248779296875,9.419847328244275,-168.06106870229007,-13.687022900763358,657.6146788990826,-36.60550458715596,-5.596330275229358,,
1760472459.9491336,0,0.489501953125,0.12457275390625,0.12518310546875,9.412213740458014,-144.61068702290078,-44.954198473282446,681.1009174311927,-37.98165137614679,-5.137614678899083,,
1760472459.9703238,0,0.48968505859375,0.12451171875,0.125,9.419847328244275,-123.1145038167939,11.725190839694656,657.6146788990826,-37.706422018348626,-5.045871559633028,,
1760472459.9809418,0,0.48980712890625,0.12451171875,0.12481689453125,9.442748091603054,-117.25190839694656,-19.549618320610687,469.72477064220186,-36.69724770642202,-5.963302752293578,,
1760472460.00222,0,0.489990234375,0.1243896484375,0.125,9.427480916030534,-138.74809160305344,-72.31297709923665,728.0733944954129,-37.247706422018354,-5.688073394495413,,
1760472460.012921,0,0.4901123046875,0.12445068359375,0.12506103515625,9.412213740458014,-156.33587786259542,-48.86259541984733,328.8073394495413,-36.51376146788991,-5.412844036697248,,
1760472460.0344822,0,0.49029541015625,0.12451171875,0.125,9.435114503816793,-138.74809160305344,-27.366412213740457,399.26605504587155,-36.972477064220186,-5.137614678899083,,
1760472460.0662863,0,0.49041748046875,0.12451171875,0.1248779296875,9.427480916030534,-156.33587786259542,-39.091603053435115,798.5321100917431,-37.15596330275229,-5.229357798165138,,
1760472460.0772135,0,0.4906005859375,0.12457275390625,0.125,9.404580152671755,-138.74809160305344,-35.18320610687023,305.3211009174312,-37.61467889908257,-5.412844036697248,,
1760472460.098469,0,0.49072265625,0.12457275390625,0.12506103515625,9.419847328244275,-185.64885496183206,-56.6793893129771,493.2110091743119,-36.51376146788991,-5.688073394495413,,
1760472460.109409,0,0.49090576171875,0.12451171875,0.12506103515625,9.412213740458014,-150.4732824427481,-31.27480916030534,704.5871559633028,-37.61467889908257,-6.055045871559633,,
1760472460.1412466,0,0.49102783203125,0.12457275390625,0.125,9.419847328244275,-160.24427480916032,-35.18320610687023,305.3211009174312,-37.522935779816514,-5.779816513761468,,
1760472460.1730344,0,0.4912109375,0.12451171875,0.12506103515625,9.412213740458014,-171.96946564885496,-31.27480916030534,915.9633027522937,-37.06422018348624,-5.045871559633028,,
1760472460.1839485,0,0.4913330078125,0.12451171875,0.12506103515625,9.419847328244275,-95.7557251908397,-9.778625954198473,516.6972477064221,-37.98165137614679,-5.321100917431193,,
1760472460.2057054,0,0.49151611328125,0.12445068359375,0.12493896484375,9.419847328244275,-144.61068702290078,-27.366412213740457,751.559633027523,-37.06422018348624,-6.055045871559633,,
1760472460.2372878,0,0.49163818359375,0.1246337890625,0.1251220703125,9.412213740458014,-123.1145038167939,-54.725190839694655,422.7522935779817,-36.88073394495413,-5.963302752293578,,
1760472460.2480652,0,0.4918212890625,0.1243896484375,0.1251220703125,9.412213740458014,-168.06106870229007,-29.3206106870229,493.2110091743119,-37.247706422018354,-5.321100917431193,,
1760472460.2589376,0,0.491943359375,0.12451171875,0.125,9.412213740458014,-142.65648854961833,-62.541984732824424,704.5871559633028,-36.972477064220186,-5.596330275229358,,
1760472460.2802064,0,0.49212646484375,0.1243896484375,0.12506103515625,9.427480916030534,-140.70229007633588,-52.770992366412216,798.5321100917431,-36.972477064220186,-5.412844036697248,,
1760472460.3016226,0,0.49224853515625,0.12451171875,0.12506103515625,9.427480916030534,-140.70229007633588,-9.778625954198473,751.559633027523,-37.06422018348624,-5.5045871559633035,,
1760472460.3123028,0,0.492431640625,0.12457275390625,0.12506103515625,9.427480916030534,-146.5648854961832,-7.824427480916031,704.5871559633028,-37.43119266055046,-5.779816513761468,,
1760472460.3334854,0,0.4925537109375,0.12451171875,0.125,9.427480916030534,-127.02290076335878,-23.458015267175572,540.1834862385322,-36.972477064220186,-5.871559633027523,,
1760472460.365269,0,0.49273681640625,0.12451171875,0.125,9.404580152671755,-154.38167938931298,-17.595419847328245,657.6146788990826,-37.15596330275229,-5.688073394495413,,
1760472460.376021,0,0.49285888671875,0.12451171875,0.1251220703125,9.435114503816793,-156.33587786259542,-33.229007633587784,798.5321100917431,-37.06422018348624,-5.229357798165138,,
1760472460.3974156,0,0.4930419921875,0.1243896484375,0.125,9.427480916030534,-128.9770992366412,-50.81679389312977,728.0733944954129,-37.522935779816514,-5.5045871559633035,,
1760472460.4081895,0,0.4931640625,0.12457275390625,0.125,9.427480916030534,-117.25190839694656,-5.870229007633588,798.5321100917431,-37.43119266055046,-5.688073394495413,,
1760472460.4294875,0,0.49334716796875,0.12451171875,0.1251220703125,9.412213740458014,-173.9236641221374,-19.549618320610687,704.5871559633028,-36.51376146788991,-5.412844036697248,,
1760472460.46129,0,0.49346923828125,0.12457275390625,0.125,9.427480916030534,-160.24427480916032,-29.3206106870229,751.559633027523,-36.972477064220186,-6.146788990825688,,
1760472460.472084,0,0.49365234375,0.12451171875,0.12506103515625,9.404580152671755,-144.61068702290078,-21.50381679389313,375.7798165137615,-36.88073394495413,-5.137614678899083,,
1760472460.4934044,0,0.4937744140625,0.12451171875,0.12493896484375,9.412213740458014,-156.33587786259542,-58.63358778625954,939.4495412844037,-37.247706422018354,-5.688073394495413,,
1760472460.5250704,0,0.49395751953125,0.12445068359375,0.12506103515625,9.419847328244275,-123.1145038167939,-66.45038167938931,681.1009174311927,-37.06422018348624,-5.5045871559633035,,
1760472460.53575,0,0.49407958984375,0.12451171875,0.1251220703125,9.427480916030534,-154.38167938931298,-19.549618320610687,493.2110091743119,-36.88073394495413,-5.229357798165138,,
1760472460.5570357,0,0.4942626953125,0.12451171875,0.125,9.412213740458014,-134.83969465648855,-68.40458015267176,422.7522935779817,-37.43119266055046,-5.5045871559633035,,
1760472460.567815,0,0.494384765625,0.12457275390625,0.1251220703125,9.412213740458014,-128.9770992366412,-13.687022900763358,634.1284403669725,-36.788990825688074,-5.5045871559633035,,
1760472460.5891967,0,0.49456787109375,0.12457275390625,0.12481689453125,9.427480916030534,-134.83969465648855,21.49618320610687,493.2110091743119,-36.788990825688074,-5.596330275229358,,
1760472460.5999987,0,0.49468994140625,0.12445068359375,0.12506103515625,9.412213740458014,-132.8854961832061,-54.725190839694655,751.559633027523,-37.06422018348624,-5.596330275229358,,
1760472460.6212897,0,0.494873046875,0.12457275390625,0.1251220703125,9.404580152671755,-136.793893129771,-25.412213740458014,868.9908256880734,-37.522935779816514,-5.229357798165138,,
1760472460.6530013,0,0.4949951171875,0.1246337890625,0.12506103515625,9.396946564885496,-162.19847328244273,-27.366412213740457,775.045871559633,-36.88073394495413,-5.412844036697248,,
1760472460.6843877,0,0.49517822265625,0.12445068359375,0.125,9.396946564885496,-128.9770992366412,-46.908396946564885,446.2385321100918,-37.15596330275229,-6.146788990825688,,
1760472460.695067,0,0.49530029296875,0.12457275390625,0.12506103515625,9.412213740458014,-154.38167938931298,-85.99236641221374,798.5321100917431,-36.69724770642202,-6.146788990825688,,
1760472460.7163615,0,0.4954833984375,0.1243896484375,0.125,9.435114503816793,-156.33587786259542,-50.81679389312977,798.5321100917431,-36.972477064220186,-5.963302752293578,,
1760472460.7270775,0,0.49560546875,0.12457275390625,0.1251220703125,9.396946564885496,-166.10687022900763,-3.9160305343511452,563.6697247706422,-36.972477064220186,-5.5045871559633035,,
1760472460.7483065,0,0.49578857421875,0.12451171875,0.1248779296875,9.419847328244275,-162.19847328244273,-43.0,610.6422018348624,-37.3394495412844,-5.596330275229358,,
1760472460.759116,0,0.49591064453125,0.12445068359375,0.125,9.412213740458014,-166.10687022900763,0.0,422.7522935779817,-36.972477064220186,-5.963302752293578,,
1760472460.7803578,0,0.49609375,0.12457275390625,0.125,9.419847328244275,-158.29007633587787,-21.50381679389313,540.1834862385322,-37.706422018348626,-5.412844036697248,,
1760472460.8121665,0,0.4962158203125,0.12457275390625,0.1251220703125,9.427480916030534,-162.19847328244273,-44.954198473282446,657.6146788990826,-36.69724770642202,-5.688073394495413,,
1760472460.8229108,0,0.49639892578125,0.12451171875,0.12506103515625,9.412213740458014,-158.29007633587787,3.9083969465648853,775.045871559633,-36.972477064220186,-5.688073394495413,,
1760472460.8442707,0,0.49652099609375,0.12445068359375,0.12506103515625,9.419847328244275,-132.8854961832061,-46.908396946564885,775.045871559633,-36.972477064220186,-5.321100917431193,,
1760472460.8550148,0,0.4967041015625,0.12451171875,0.12493896484375,9.427480916030534,-138.74809160305344,-19.549618320610687,352.2935779816514,-37.61467889908257,-4.954128440366973,,
1760472460.8764303,0,0.496826171875,0.12445068359375,0.125,9.427480916030534,-125.06870229007633,-41.045801526717554,587.1559633027523,-36.69724770642202,-5.229357798165138,,
1760472460.9084005,0,0.49700927734375,0.12457275390625,0.125,9.412213740458014,-136.793893129771,-54.725190839694655,587.1559633027523,-37.43119266055046,-5.688073394495413,,
1760472460.9190805,0,0.49713134765625,0.12457275390625,0.12506103515625,9.412213740458014,-173.9236641221374,-39.091603053435115,939.4495412844037,-36.788990825688074,-5.779816513761468,,
1760472460.9404354,0,0.497314453125,0.12451171875,0.125,9.419847328244275,-136.793893129771,-15.641221374045802,563.6697247706422,-37.43119266055046,-5.321100917431193,,
1760472460.9721918,0,0.4974365234375,0.12457275390625,0.1251220703125,9.412213740458014,-150.4732824427481,-35.18320610687023,681.1009174311927,-36.972477064220186,-5.137614678899083,,
1760472460.9828482,0,0.49761962890625,0.12451171875,0.1248779296875,9.396946564885496,-158.29007633587787,-25.412213740458014,469.72477064220186,-37.522935779816514,-5.321100917431193,,
1760472460.9935822,0,0.49774169921875,0.12457275390625,0.12493896484375,9.427480916030534,-136.793893129771,-52.770992366412216,775.045871559633,-37.15596330275229,-5.596330275229358,,
1760472461.025399,0,0.4979248046875,0.12451171875,0.12506103515625,9.404580152671755,-146.5648854961832,-31.27480916030534,422.7522935779817,-36.88073394495413,-6.055045871559633,,
1760472461.036107,0,0.498046875,0.12457275390625,0.12493896484375,9.427480916030534,-138.74809160305344,-39.091603053435115,681.1009174311927,-37.43119266055046,-5.688073394495413,,
1760472461.0573022,0,0.49822998046875,0.12445068359375,0.12506103515625,9.404580152671755,-160.24427480916032,-39.091603053435115,258.34862385321105,-36.972477064220186,-5.321100917431193,,
1760472461.0678837,0,0.49835205078125,0.12451171875,0.12506103515625,9.404580152671755,-119.20610687022901,-58.63358778625954,634.1284403669725,-37.06422018348624,-5.596330275229358,,
1760472461.0889933,0,0.49853515625,0.12457275390625,0.1251220703125,9.396946564885496,-154.38167938931298,-19.549618320610687,164.40366972477065,-36.972477064220186,-5.321100917431193,,
1760472461.1205285,0,0.4986572265625,0.12445068359375,0.12493896484375,9.404580152671755,-123.1145038167939,-15.641221374045802,563.6697247706422,-37.06422018348624,-5.137614678899083,,
1760472461.131356,0,0.49884033203125,0.12451171875,0.125,9.412213740458014,-140.70229007633588,-33.229007633587784,610.6422018348624,-37.15596330275229,-5.412844036697248,,
1760472461.152587,0,0.49896240234375,0.12445068359375,0.125,9.427480916030534,-160.24427480916032,-13.687022900763358,610.6422018348624,-37.706422018348626,-5.779816513761468,,
1760472461.1840165,0,0.4991455078125,0.12451171875,0.12518310546875,9.419847328244275,-146.5648854961832,-29.3206106870229,822.0183486238533,-37.06422018348624,-5.229357798165138,,
1760472461.1944811,0,0.499267578125,0.12457275390625,0.12493896484375,9.427480916030534,-158.29007633587787,-54.725190839694655,610.6422018348624,-36.60550458715596,-5.412844036697248,,
1760472461.2155786,0,0.49945068359375,0.12445068359375,0.125,9.419847328244275,-142.65648854961833,-5.870229007633588,751.559633027523,-37.15596330275229,-5.412844036697248,,
1760472461.2475157,0,0.49957275390625,0.12451171875,0.12506103515625,9.412213740458014,-171.96946564885496,-33.229007633587784,634.1284403669725,-37.06422018348624,-5.321100917431193,,
1760472461.2582676,0,0.499755859375,0.12445068359375,0.1251220703125,9.412213740458014,-136.793893129771,-23.458015267175572,305.3211009174312,-37.706422018348626,-5.412844036697248,,
1760472461.2794545,0,0.4998779296875,0.12457275390625,0.1248779296875,9.435114503816793,-181.74045801526717,-52.770992366412216,610.6422018348624,-36.972477064220186,-5.596330275229358,,
1760472461.3007314,0,0.50006103515625,0.1246337890625,0.125,9.435114503816793,-119.20610687022901,-15.641221374045802,845.5045871559633,-37.61467889908257,-5.5045871559633035,,
1760472461.311719,0,0.50018310546875,0.12451171875,0.12506103515625,9.404580152671755,-158.29007633587787,-41.045801526717554,775.045871559633,-36.972477064220186,-4.678899082568807,,
1760472461.3330178,0,0.5003662109375,0.12469482421875,0.12506103515625,9.419847328244275,-150.4732824427481,-48.86259541984733,751.559633027523,-37.06422018348624,-5.412844036697248,,
1760472461.3649364,0,0.50048828125,0.12451171875,0.12506103515625,9.412213740458014,-162.19847328244273,-21.50381679389313,610.6422018348624,-37.247706422018354,-5.412844036697248,,
1760472461.375696,0,0.50067138671875,0.12445068359375,0.12506103515625,9.419847328244275,-134.83969465648855,-39.091603053435115,587.1559633027523,-36.788990825688074,-5.321100917431193,,
1760472461.3971398,0,0.50079345703125,0.12451171875,0.12493896484375,9.412213740458014,-132.8854961832061,-37.13740458015267,422.7522935779817,-37.61467889908257,-5.779816513761468,,
1760472461.4078782,0,0.5009765625,0.12457275390625,0.12506103515625,9.404580152671755,-146.5648854961832,-7.824427480916031,469.72477064220186,-36.60550458715596,-5.596330275229358,,
1760472461.429132,0,0.5010986328125,0.12451171875,0.125,9.412213740458014,-136.793893129771,-41.045801526717554,657.6146788990826,-37.247706422018354,-4.954128440366973,,
1760472461.4398913,0,0.50128173828125,0.12451171875,0.12506103515625,9.419847328244275,-162.19847328244273,-15.641221374045802,516.6972477064221,-36.788990825688074,-5.596330275229358,,
1760472461.4612463,0,0.50140380859375,0.1243896484375,0.12518310546875,9.412213740458014,-123.1145038167939,-11.732824427480915,657.6146788990826,-37.06422018348624,-5.963302752293578,,
1760472461.4930923,0,0.5015869140625,0.12445068359375,0.12493896484375,9.412213740458014,-125.06870229007633,-11.732824427480915,352.2935779816514,-37.522935779816514,-5.229357798165138,,
1760472461.50388,0,0.501708984375,0.12445068359375,0.125,9.427480916030534,-152.42748091603053,-60.587786259541986,493.2110091743119,-36.972477064220186,-5.5045871559633035,,
1760472461.5251715,0,0.50189208984375,0.12445068359375,0.125,9.412213740458014,-132.8854961832061,-37.13740458015267,587.1559633027523,-37.247706422018354,-5.412844036697248,,
1760472461.5570352,0,0.50201416015625,0.12451171875,0.125,9.427480916030534,-144.61068702290078,-31.27480916030534,728.0733944954129,-36.60550458715596,-5.229357798165138,,
1760472461.5677896,0,0.502197265625,0.12451171875,0.1251220703125,9.427480916030534,-138.74809160305344,-11.732824427480915,540.1834862385322,-37.15596330275229,-5.688073394495413,,
1760472461.5891254,0,0.5023193359375,0.12451171875,0.1251220703125,9.412213740458014,-150.4732824427481,-41.045801526717554,516.6972477064221,-37.79816513761468,-5.412844036697248,,
1760472461.6210306,0,0.50250244140625,0.12445068359375,0.125,9.419847328244275,-162.19847328244273,-7.824427480916031,728.0733944954129,-37.706422018348626,-5.412844036697248,,
1760472461.6318097,0,0.50262451171875,0.12445068359375,0.12506103515625,9.427480916030534,-166.10687022900763,-11.732824427480915,798.5321100917431,-37.15596330275229,-5.321100917431193,,
1760472461.6532035,0,0.5028076171875,0.1246337890625,0.12518310546875,9.419847328244275,-125.06870229007633,-62.541984732824424,798.5321100917431,-36.88073394495413,-5.688073394495413,,
1760472461.6639032,0,0.5029296875,0.12451171875,0.12518310546875,9.427480916030534,-132.8854961832061,-31.27480916030534,516.6972477064221,-36.88073394495413,-5.596330275229358,,
1760472461.6851819,0,0.50311279296875,0.12451171875,0.125,9.396946564885496,-166.10687022900763,-76.22137404580153,399.26605504587155,-36.88073394495413,-6.055045871559633,,
1760472461.695795,0,0.50323486328125,0.12451171875,0.125,9.435114503816793,-128.9770992366412,-39.091603053435115,704.5871559633028,-36.972477064220186,-5.688073394495413,,
1760472461.7171128,0,0.50341796875,0.12451171875,0.12493896484375,9.412213740458014,-162.19847328244273,-41.045801526717554,798.5321100917431,-37.43119266055046,-5.321100917431193,,
1760472461.7490017,0,0.5035400390625,0.1243896484375,0.125,9.412213740458014,-121.16030534351145,-41.045801526717554,563.6697247706422,-37.247706422018354,-5.5045871559633035,,
1760472461.7597952,0,0.50372314453125,0.12451171875,0.12506103515625,9.419847328244275,-119.20610687022901,-19.549618320610687,540.1834862385322,-36.788990825688074,-5.779816513761468,,
1760472461.781227,0,0.50384521484375,0.12451171875,0.1251220703125,9.412213740458014,-132.8854961832061,1.9541984732824427,516.6972477064221,-36.23853211009174,-5.596330275229358,,
1760472461.7919447,0,0.5040283203125,0.12451171875,0.12506103515625,9.419847328244275,-148.51908396946564,-52.770992366412216,657.6146788990826,-36.788990825688074,-5.963302752293578,,
1760472461.8133476,0,0.504150390625,0.12451171875,0.125,9.412213740458014,-156.33587786259542,-43.0,540.1834862385322,-36.60550458715596,-5.412844036697248,,
1760472461.8451765,0,0.50433349609375,0.12457275390625,0.125,9.435114503816793,-140.70229007633588,-58.63358778625954,281.8348623853211,-37.247706422018354,-5.596330275229358,,
1760472461.855918,0,0.50445556640625,0.12457275390625,0.12506103515625,9.427480916030534,-156.33587786259542,-25.412213740458014,493.2110091743119,-37.06422018348624,-4.770642201834862,,
1760472461.8771322,0,0.504638671875,0.12451171875,0.12506103515625,9.419847328244275,-152.42748091603053,-41.045801526717554,845.5045871559633,-36.788990825688074,-5.5045871559633035,,
1760472461.909,0,0.5047607421875,0.12451171875,0.1251220703125,9.435114503816793,-150.4732824427481,-48.86259541984733,915.9633027522937,-36.69724770642202,-5.688073394495413,,
1760472461.9409647,0,0.50494384765625,0.12457275390625,0.12506103515625,9.427480916030534,-152.42748091603053,-37.13740458015267,892.4770642201836,-37.522935779816514,-5.229357798165138,,
1760472461.9517136,0,0.50506591796875,0.12457275390625,0.125,9.427480916030534,-146.5648854961832,-60.587786259541986,469.72477064220186,-36.69724770642202,-5.229357798165138,,
1760472461.962469,0,0.5052490234375,0.12451171875,0.12506103515625,9.396946564885496,-121.16030534351145,-60.587786259541986,587.1559633027523,-37.15596330275229,-5.321100917431193,,
1760472461.9733465,0,0.50537109375,0.12445068359375,0.12506103515625,9.419847328244275,-152.42748091603053,-23.458015267175572,422.7522935779817,-36.88073394495413,-5.596330275229358,,
1760472462.0053074,0,0.50555419921875,0.12445068359375,0.12506103515625,9.412213740458014,-132.8854961832061,3.9083969465648853,305.3211009174312,-37.61467889908257,-4.862385321100918,,
1760472462.0160246,0,0.50567626953125,0.1243896484375,0.125,9.435114503816793,-134.83969465648855,-19.549618320610687,845.5045871559633,-37.247706422018354,-6.330275229357799,,
1760472462.0267742,0,0.505859375,0.12457275390625,0.12506103515625,9.427480916030534,-156.33587786259542,-13.687022900763358,563.6697247706422,-37.247706422018354,-4.862385321100918,,
1760472462.0586402,0,0.5059814453125,0.12457275390625,0.1251220703125,9.419847328244275,-158.29007633587787,-27.366412213740457,610.6422018348624,-36.972477064220186,-5.321100917431193,,
1760472462.0695138,0,0.50616455078125,0.12451171875,0.12506103515625,9.404580152671755,-168.06106870229007,-5.870229007633588,728.0733944954129,-37.247706422018354,-5.321100917431193,,
1760472462.090955,0,0.50628662109375,0.12445068359375,0.125,9.412213740458014,-148.51908396946564,-50.81679389312977,540.1834862385322,-37.61467889908257,-5.045871559633028,,
1760472462.1018019,0,0.5064697265625,0.1243896484375,0.12506103515625,9.442748091603054,-142.65648854961833,-0.007633587786259542,563.6697247706422,-37.247706422018354,-6.055045871559633,,
1760472462.123133,0,0.506591796875,0.12451171875,0.12506103515625,9.412213740458014,-168.06106870229007,-31.27480916030534,587.1559633027523,-36.3302752293578,-5.688073394495413,,
1760472462.1549962,0,0.50677490234375,0.12457275390625,0.125,9.419847328244275,-136.793893129771,-3.9160305343511452,775.045871559633,-36.88073394495413,-5.688073394495413,,
1760472462.165631,0,0.50689697265625,0.12445068359375,0.125,9.419847328244275,-117.25190839694656,-29.3206106870229,422.7522935779817,-36.972477064220186,-5.321100917431193,,
1760472462.1871424,0,0.507080078125,0.12445068359375,0.12506103515625,9.412213740458014,-138.74809160305344,-41.045801526717554,681.1009174311927,-36.972477064220186,-5.045871559633028,,
1760472462.2189975,0,0.5072021484375,0.12445068359375,0.1251220703125,9.404580152671755,-158.29007633587787,-25.412213740458014,399.26605504587155,-36.88073394495413,-5.596330275229358,,
1760472462.2298193,0,0.50738525390625,0.1246337890625,0.12506103515625,9.412213740458014,-170.01526717557252,-31.27480916030534,469.72477064220186,-36.42201834862385,-5.596330275229358,,
1760472462.2512448,0,0.50750732421875,0.12451171875,0.125,9.427480916030534,-158.29007633587787,-11.732824427480915,305.3211009174312,-37.43119266055046,-5.412844036697248,,
1760472462.261988,0,0.5076904296875,0.12432861328125,0.12493896484375,9.412213740458014,-154.38167938931298,1.9541984732824427,728.0733944954129,-37.06422018348624,-5.871559633027523,,
1760472462.3042119,0,0.5078125,0.1243896484375,0.125,9.427480916030534,-142.65648854961833,-1.9618320610687023,728.0733944954129,-37.06422018348624,-5.688073394495413,,
1760472462.3150616,0,0.50799560546875,0.12451171875,0.125,9.435114503816793,-158.29007633587787,-31.27480916030534,775.045871559633,-37.43119266055046,-5.137614678899083,,
1760472462.325914,0,0.50811767578125,0.1243896484375,0.12493896484375,9.412213740458014,-160.24427480916032,-27.366412213740457,281.8348623853211,-36.788990825688074,-5.596330275229358,,
1760472462.3474128,0,0.50830078125,0.12445068359375,0.125,9.419847328244275,-117.25190839694656,-80.12977099236642,469.72477064220186,-37.3394495412844,-5.688073394495413,,
1760472462.3793578,0,0.5084228515625,0.12445068359375,0.12493896484375,9.427480916030534,-156.33587786259542,-54.725190839694655,634.1284403669725,-36.42201834862385,-6.330275229357799,,
1760472462.3901353,0,0.50860595703125,0.12451171875,0.12506103515625,9.396946564885496,-123.1145038167939,-78.17557251908397,587.1559633027523,-37.247706422018354,-6.146788990825688,,
1760472462.4114783,0,0.50872802734375,0.12457275390625,0.12493896484375,9.435114503816793,-134.83969465648855,-39.091603053435115,305.3211009174312,-37.522935779816514,-5.229357798165138,,
1760472462.422236,0,0.5089111328125,0.1243896484375,0.1251220703125,9.427480916030534,-168.06106870229007,-31.27480916030534,0.0,-36.69724770642202,-5.321100917431193,,
1760472462.433187,0,0.509033203125,0.1243896484375,0.12506103515625,9.419847328244275,-117.25190839694656,-31.27480916030534,610.6422018348624,-37.43119266055046,-5.5045871559633035,,
1760472462.465027,0,0.50921630859375,0.12457275390625,0.12493896484375,9.427480916030534,-154.38167938931298,-74.26717557251908,798.5321100917431,-37.43119266055046,-5.779816513761468,,
1760472462.4756913,0,0.50933837890625,0.12408447265625,0.125244140625,9.435114503816793,-158.29007633587787,-27.366412213740457,939.4495412844037,-36.88073394495413,-5.5045871559633035,,
1760472462.4969757,0,0.509521484375,0.12481689453125,0.1248779296875,9.450381679389313,-142.65648854961833,-39.091603053435115,469.72477064220186,-36.788990825688074,-6.055045871559633,,
1760472462.528754,0,0.5096435546875,0.124755859375,0.12493896484375,9.419847328244275,-166.10687022900763,-33.229007633587784,281.8348623853211,-37.06422018348624,-5.779816513761468,,
1760472462.5604482,0,0.50982666015625,0.124267578125,0.12506103515625,9.404580152671755,-123.1145038167939,-21.50381679389313,728.0733944954129,-37.522935779816514,-5.412844036697248,,
1760472462.571253,0,0.50994873046875,0.12451171875,0.12506103515625,9.412213740458014,-130.93129770992365,-50.81679389312977,587.1559633027523,-37.3394495412844,-5.871559633027523,,
1760472462.5927348,0,0.5101318359375,0.1246337890625,0.12493896484375,9.427480916030534,-128.9770992366412,-37.13740458015267,540.1834862385322,-36.69724770642202,-5.412844036697248,,
1760472462.603705,0,0.51025390625,0.1243896484375,0.12506103515625,9.404580152671755,-140.70229007633588,-39.091603053435115,540.1834862385322,-36.788990825688074,-5.779816513761468,,
1760472462.6251352,0,0.51043701171875,0.1243896484375,0.12506103515625,9.412213740458014,-160.24427480916032,-0.007633587786259542,634.1284403669725,-36.972477064220186,-5.412844036697248,,
1760472462.6359062,0,0.51055908203125,0.1246337890625,0.125,9.427480916030534,-158.29007633587787,-35.18320610687023,657.6146788990826,-36.972477064220186,-5.412844036697248,,
1760472462.6572752,0,0.5107421875,0.12445068359375,0.12493896484375,9.435114503816793,-173.9236641221374,-21.50381679389313,728.0733944954129,-37.247706422018354,-5.137614678899083,,
1760472462.668034,0,0.5108642578125,0.12432861328125,0.12493896484375,9.419847328244275,-156.33587786259542,-25.412213740458014,540.1834862385322,-36.69724770642202,-5.688073394495413,,
1760472462.6891615,0,0.51104736328125,0.12451171875,0.12518310546875,9.404580152671755,-128.9770992366412,-48.86259541984733,540.1834862385322,-37.3394495412844,-5.779816513761468,,
1760472462.7209957,0,0.51116943359375,0.12451171875,0.125,9.427480916030534,-152.42748091603053,-54.725190839694655,728.0733944954129,-36.972477064220186,-6.055045871559633,,
1760472462.7317636,0,0.5113525390625,0.12445068359375,0.12493896484375,9.404580152671755,-152.42748091603053,-17.595419847328245,516.6972477064221,-37.06422018348624,-5.871559633027523,,
1760472462.7531142,0,0.511474609375,0.12445068359375,0.12506103515625,9.419847328244275,-154.38167938931298,-31.27480916030534,516.6972477064221,-37.88990825688073,-5.412844036697248,,
1760472462.7850063,0,0.51165771484375,0.12451171875,0.1251220703125,9.435114503816793,-154.38167938931298,-3.9160305343511452,610.6422018348624,-37.43119266055046,-4.954128440366973,,
1760472462.7957633,0,0.51177978515625,0.12451171875,0.125,9.404580152671755,-154.38167938931298,-50.81679389312977,375.7798165137615,-37.43119266055046,-5.137614678899083,,
1760472462.8171678,0,0.511962890625,0.12451171875,0.1248779296875,9.404580152671755,-150.4732824427481,-23.458015267175572,775.045871559633,-36.788990825688074,-5.412844036697248,,
1760472462.8279064,0,0.5120849609375,0.12445068359375,0.12506103515625,9.427480916030534,-140.70229007633588,-15.641221374045802,493.2110091743119,-37.06422018348624,-6.055045871559633,,
1760472462.8492808,0,0.51226806640625,0.12451171875,0.12518310546875,9.404580152671755,-150.4732824427481,-23.458015267175572,751.559633027523,-36.972477064220186,-5.688073394495413,,
1760472462.8813043,0,0.51239013671875,0.12445068359375,0.12493896484375,9.435114503816793,-132.8854961832061,-35.18320610687023,634.1284403669725,-37.06422018348624,-5.412844036697248,,
1760472462.8920205,0,0.5125732421875,0.1246337890625,0.1251220703125,9.427480916030534,-134.83969465648855,-25.412213740458014,540.1834862385322,-36.788990825688074,-5.779816513761468,,
1760472462.9133863,0,0.5126953125,0.12451171875,0.125,9.404580152671755,-150.4732824427481,-23.458015267175572,446.2385321100918,-38.07339449541284,-4.862385321100918,,
1760472462.9453115,0,0.51287841796875,0.12451171875,0.125,9.419847328244275,-111.38931297709924,-11.732824427480915,493.2110091743119,-37.706422018348626,-5.596330275229358,,
1760472462.9560258,0,0.51300048828125,0.12451171875,0.12506103515625,9.412213740458014,-168.06106870229007,-35.18320610687023,328.8073394495413,-36.88073394495413,-6.055045871559633,,
1760472462.9774094,0,0.51318359375,0.12457275390625,0.12506103515625,9.412213740458014,-117.25190839694656,-21.50381679389313,446.2385321100918,-37.247706422018354,-6.055045871559633,,
1760472462.9881501,0,0.5133056640625,0.12451171875,0.12506103515625,9.427480916030534,-125.06870229007633,-43.0,657.6146788990826,-36.69724770642202,-5.688073394495413,,
1760472463.0095737,0,0.51348876953125,0.12445068359375,0.125,9.396946564885496,-179.78625954198472,1.9541984732824427,751.559633027523,-37.06422018348624,-5.596330275229358,,
1760472463.0416913,0,0.51361083984375,0.12451171875,0.125,9.412213740458014,-181.74045801526717,-58.63358778625954,868.9908256880734,-37.06422018348624,-5.5045871559633035,,
1760472463.0524101,0,0.5137939453125,0.12445068359375,0.12493896484375,9.419847328244275,-134.83969465648855,-37.13740458015267,681.1009174311927,-37.247706422018354,-5.596330275229358,,
1760472463.0632615,0,0.513916015625,0.12457275390625,0.12506103515625,9.435114503816793,-164.15267175572518,-31.27480916030534,587.1559633027523,-37.61467889908257,-5.5045871559633035,,
1760472463.0950503,0,0.51409912109375,0.12445068359375,0.12506103515625,9.404580152671755,-150.4732824427481,-5.870229007633588,563.6697247706422,-36.788990825688074,-5.871559633027523,,
1760472463.105703,0,0.51422119140625,0.12451171875,0.12506103515625,9.419847328244275,-160.24427480916032,-13.687022900763358,446.2385321100918,-37.247706422018354,-5.5045871559633035,,
1760472463.1270416,0,0.514404296875,0.12457275390625,0.125,9.419847328244275,-152.42748091603053,-29.3206106870229,657.6146788990826,-36.972477064220186,-5.321100917431193,,
1760472463.1379519,0,0.5145263671875,0.12457275390625,0.1248779296875,9.419847328244275,-146.5648854961832,-7.824427480916031,681.1009174311927,-36.972477064220186,-5.963302752293578,,
1760472463.1699662,0,0.51470947265625,0.12451171875,0.125,9.419847328244275,-121.16030534351145,-39.091603053435115,704.5871559633028,-36.788990825688074,-5.137614678899083,,
1760472463.2016032,0,0.51483154296875,0.12445068359375,0.125,9.419847328244275,-168.06106870229007,-19.549618320610687,728.0733944954129,-36.788990825688074,-5.963302752293578,,
1760472463.2123575,0,0.5150146484375,0.12451171875,0.1251220703125,9.389312977099237,-146.5648854961832,-44.954198473282446,775.045871559633,-37.06422018348624,-5.779816513761468,,
1760472463.2337708,0,0.51513671875,0.1246337890625,0.12506103515625,9.419847328244275,-144.61068702290078,-39.091603053435115,657.6146788990826,-37.06422018348624,-5.137614678899083,,
1760472463.2445076,0,0.51531982421875,0.12445068359375,0.125,9.412213740458014,-130.93129770992365,-64.49618320610686,352.2935779816514,-37.43119266055046,-4.862385321100918,,
1760472463.265912,0,0.51544189453125,0.12451171875,0.1251220703125,9.419847328244275,-128.9770992366412,-70.3587786259542,704.5871559633028,-36.69724770642202,-5.321100917431193,,
1760472463.2872298,0,0.515625,0.12451171875,0.125,9.419847328244275,-152.42748091603053,-3.9160305343511452,610.6422018348624,-36.69724770642202,-6.055045871559633,,
1760472463.2980576,0,0.5157470703125,0.12451171875,0.125,9.419847328244275,-134.83969465648855,-41.045801526717554,563.6697247706422,-37.15596330275229,-5.688073394495413,,
1760472463.319401,0,0.51593017578125,0.12445068359375,0.12506103515625,9.419847328244275,-146.5648854961832,-21.50381679389313,563.6697247706422,-37.88990825688073,-5.5045871559633035,,
1760472463.3514352,0,0.51605224609375,0.12445068359375,0.12493896484375,9.419847328244275,-158.29007633587787,-17.595419847328245,892.4770642201836,-37.3394495412844,-5.688073394495413,,
1760472463.362197,0,0.5162353515625,0.12457275390625,0.125,9.412213740458014,-150.4732824427481,-19.549618320610687,375.7798165137615,-36.88073394495413,-5.412844036697248,,
1760472463.38351,0,0.516357421875,0.12445068359375,0.12493896484375,9.435114503816793,-123.1145038167939,9.770992366412214,798.5321100917431,-37.3394495412844,-5.779816513761468,,
1760472463.3943033,0,0.51654052734375,0.12451171875,0.125,9.435114503816793,-154.38167938931298,-23.458015267175572,798.5321100917431,-37.06422018348624,-5.963302752293578,,
1760472463.4156225,0,0.51666259765625,0.12445068359375,0.12493896484375,9.419847328244275,-175.87786259541986,-31.27480916030534,469.72477064220186,-36.972477064220186,-5.596330275229358,,
1760472463.4475782,0,0.516845703125,0.12451171875,0.1251220703125,9.404580152671755,-158.29007633587787,-35.18320610687023,563.6697247706422,-36.788990825688074,-5.596330275229358,,
1760472463.4583426,0,0.5169677734375,0.12445068359375,0.12506103515625,9.412213740458014,-148.51908396946564,-19.549618320610687,915.9633027522937,-36.788990825688074,-5.963302752293578,,
1760472463.4797642,0,0.51715087890625,0.1243896484375,0.125,9.419847328244275,-148.51908396946564,-7.824427480916031,775.045871559633,-36.60550458715596,-4.954128440366973,,
1760472463.5116158,0,0.51727294921875,0.12445068359375,0.12493896484375,9.419847328244275,-136.793893129771,-21.50381679389313,587.1559633027523,-36.972477064220186,-5.596330275229358,,
1760472463.5223827,0,0.5174560546875,0.12445068359375,0.12506103515625,9.412213740458014,-166.10687022900763,-39.091603053435115,563.6697247706422,-36.972477064220186,-6.055045871559633,,
1760472463.5437777,0,0.517578125,0.12451171875,0.125,9.419847328244275,-148.51908396946564,-33.229007633587784,563.6697247706422,-36.788990825688074,-5.779816513761468,,
1760472463.575694,0,0.51776123046875,0.12445068359375,0.125,9.404580152671755,-162.19847328244273,-15.641221374045802,328.8073394495413,-38.07339449541284,-5.5045871559633035,,
1760472463.5864644,0,0.51788330078125,0.12451171875,0.1251220703125,9.435114503816793,-146.5648854961832,-48.86259541984733,657.6146788990826,-37.15596330275229,-5.5045871559633035,,
1760472463.6079302,0,0.51806640625,0.12457275390625,0.1251220703125,9.427480916030534,-117.25190839694656,-44.954198473282446,681.1009174311927,-36.88073394495413,-5.229357798165138,,
1760472463.61869,0,0.5181884765625,0.12445068359375,0.125,9.419847328244275,-156.33587786259542,-35.18320610687023,634.1284403669725,-37.522935779816514,-5.871559633027523,,
1760472463.639997,0,0.51837158203125,0.1243896484375,0.12506103515625,9.419847328244275,-168.06106870229007,-43.0,822.0183486238533,-37.15596330275229,-5.596330275229358,,
1760472463.6612952,0,0.51849365234375,0.12445068359375,0.12506103515625,9.396946564885496,-146.5648854961832,-44.954198473282446,516.6972477064221,-37.522935779816514,-5.688073394495413,,
1760472463.6719291,0,0.5186767578125,0.12451171875,0.12506103515625,9.412213740458014,-125.06870229007633,-21.50381679389313,728.0733944954129,-36.88073394495413,-5.412844036697248,,
1760472463.7249436,0,0.518798828125,0.1243896484375,0.12493896484375,9.412213740458014,-140.70229007633588,-48.86259541984733,798.5321100917431,-36.972477064220186,-5.412844036697248,,
1760472463.7355795,0,0.51898193359375,0.12445068359375,0.12493896484375,9.435114503816793,-154.38167938931298,-52.770992366412216,728.0733944954129,-36.88073394495413,-5.321100917431193,,
1760472463.7463872,0,0.51910400390625,0.12451171875,0.1251220703125,9.427480916030534,-134.83969465648855,-15.641221374045802,681.1009174311927,-36.51376146788991,-5.5045871559633035,,
1760472463.7572646,0,0.519287109375,0.12457275390625,0.125,9.419847328244275,-197.3740458015267,-43.0,751.559633027523,-36.88073394495413,-6.146788990825688,,
1760472463.789276,0,0.5194091796875,0.12451171875,0.12518310546875,9.404580152671755,-148.51908396946564,-11.732824427480915,328.8073394495413,-36.42201834862385,-6.055045871559633,,
1760472463.7999904,0,0.51959228515625,0.12451171875,0.12506103515625,9.412213740458014,-127.02290076335878,-33.229007633587784,540.1834862385322,-37.522935779816514,-5.596330275229358,,
1760472463.8214219,0,0.51971435546875,0.1243896484375,0.125,9.412213740458014,-130.93129770992365,-33.229007633587784,751.559633027523,-37.43119266055046,-5.321100917431193,,
1760472463.8321726,0,0.5198974609375,0.12445068359375,0.12493896484375,9.435114503816793,-144.61068702290078,-44.954198473282446,751.559633027523,-36.972477064220186,-5.412844036697248,,
1760472463.8536391,0,0.52001953125,0.12457275390625,0.12506103515625,9.404580152671755,-146.5648854961832,-31.27480916030534,563.6697247706422,-36.972477064220186,-5.779816513761468,,
1760472463.885413,0,0.52020263671875,0.12451171875,0.125,9.419847328244275,-121.16030534351145,-23.458015267175572,164.40366972477065,-36.788990825688074,-5.963302752293578,,
1760472463.896208,0,0.52032470703125,0.12445068359375,0.125,9.419847328244275,-189.55725190839695,-31.27480916030534,822.0183486238533,-36.788990825688074,-5.5045871559633035,,
1760472463.907074,0,0.5205078125,0.12451171875,0.12506103515625,9.419847328244275,-160.24427480916032,-29.3206106870229,399.26605504587155,-36.60550458715596,-5.229357798165138,,
1760472463.9179678,0,0.5206298828125,0.12451171875,0.125,9.419847328244275,-136.793893129771,-46.908396946564885,704.5871559633028,-37.43119266055046,-5.688073394495413,,
1760472463.9499977,0,0.52081298828125,0.12457275390625,0.12506103515625,9.427480916030534,-150.4732824427481,-23.458015267175572,375.7798165137615,-36.88073394495413,-5.229357798165138,,
1760472463.9819648,0,0.52093505859375,0.12457275390625,0.12493896484375,9.427480916030534,-173.9236641221374,-15.641221374045802,352.2935779816514,-37.06422018348624,-5.229357798165138,,
1760472463.9927838,0,0.5211181640625,0.1243896484375,0.125,9.427480916030534,-166.10687022900763,-21.50381679389313,775.045871559633,-36.788990825688074,-5.779816513761468,,
1760472464.0142355,0,0.521240234375,0.12457275390625,0.125,9.419847328244275,-156.33587786259542,-17.595419847328245,540.1834862385322,-37.15596330275229,-5.412844036697248,,
1760472464.024974,0,0.52142333984375,0.12445068359375,0.1251220703125,9.427480916030534,-160.24427480916032,-48.86259541984733,469.72477064220186,-37.522935779816514,-5.5045871559633035,,
1760472464.0463858,0,0.52154541015625,0.12457275390625,0.125,9.412213740458014,-160.24427480916032,-27.366412213740457,775.045871559633,-36.055045871559635,-5.779816513761468,,
1760472464.0783856,0,0.521728515625,0.12445068359375,0.125,9.412213740458014,-136.793893129771,-44.954198473282446,187.88990825688074,-37.43119266055046,-5.779816513761468,,
1760472464.0891662,0,0.5218505859375,0.12451171875,0.12506103515625,9.435114503816793,-164.15267175572518,-50.81679389312977,516.6972477064221,-36.972477064220186,-5.412844036697248,,
1760472464.1001003,0,0.52203369140625,0.12432861328125,0.12506103515625,9.419847328244275,-162.19847328244273,-74.26717557251908,751.559633027523,-37.247706422018354,-5.5045871559633035,,
1760472464.13203,0,0.52215576171875,0.12445068359375,0.1251220703125,9.412213740458014,-171.96946564885496,-56.6793893129771,258.34862385321105,-37.15596330275229,-5.412844036697248,,
1760472464.1428368,0,0.5223388671875,0.12451171875,0.125,9.419847328244275,-156.33587786259542,-9.778625954198473,23.486238532110093,-37.3394495412844,-5.688073394495413,,
1760472464.1642828,0,0.5224609375,0.12445068359375,0.125,9.404580152671755,-134.83969465648855,-31.27480916030534,775.045871559633,-37.88990825688073,-5.779816513761468,,
1760472464.196112,0,0.52264404296875,0.12457275390625,0.12506103515625,9.396946564885496,-150.4732824427481,-35.18320610687023,446.2385321100918,-36.88073394495413,-5.871559633027523,,
1760472464.2069058,0,0.52276611328125,0.12451171875,0.1251220703125,9.412213740458014,-136.793893129771,-44.954198473282446,775.045871559633,-36.3302752293578,-5.596330275229358,,
1760472464.2282996,0,0.52294921875,0.12457275390625,0.125,9.396946564885496,-156.33587786259542,-39.091603053435115,657.6146788990826,-37.06422018348624,-4.862385321100918,,
1760472464.239011,0,0.5230712890625,0.12451171875,0.12493896484375,9.427480916030534,-128.9770992366412,-25.412213740458014,657.6146788990826,-36.972477064220186,-5.688073394495413,,
1760472464.2604158,0,0.52325439453125,0.12451171875,0.1251220703125,9.404580152671755,-142.65648854961833,-64.49618320610686,422.7522935779817,-36.972477064220186,-5.229357798165138,,
1760472464.292392,0,0.52337646484375,0.12451171875,0.125,9.427480916030534,-138.74809160305344,-27.366412213740457,587.1559633027523,-36.972477064220186,-6.055045871559633,,
1760472464.3032334,0,0.5235595703125,0.12451171875,0.12506103515625,9.427480916030534,-138.74809160305344,-50.81679389312977,704.5871559633028,-36.972477064220186,-5.963302752293578,,
1760472464.3246198,0,0.523681640625,0.12457275390625,0.12506103515625,9.419847328244275,-170.01526717557252,-29.3206106870229,375.7798165137615,-37.3394495412844,-5.045871559633028,,
1760472464.3353772,0,0.52386474609375,0.12445068359375,0.1251220703125,9.396946564885496,-132.8854961832061,-50.81679389312977,962.9357798165138,-37.15596330275229,-5.596330275229358,,
1760472464.356843,0,0.52398681640625,0.12457275390625,0.12506103515625,9.427480916030534,-185.64885496183206,-48.86259541984733,328.8073394495413,-36.88073394495413,-5.779816513761468,,
1760472464.3781502,0,0.524169921875,0.12451171875,0.1251220703125,9.404580152671755,-117.25190839694656,-15.641221374045802,563.6697247706422,-37.3394495412844,-5.137614678899083,,
1760472464.388982,0,0.5242919921875,0.12451171875,0.125,9.404580152671755,-134.83969465648855,-54.725190839694655,868.9908256880734,-36.69724770642202,-5.596330275229358,,
1760472464.4102936,0,0.52447509765625,0.1243896484375,0.12506103515625,9.419847328244275,-134.83969465648855,-13.687022900763358,704.5871559633028,-37.61467889908257,-5.596330275229358,,
1760472464.4422941,0,0.52459716796875,0.12451171875,0.125,9.427480916030534,-136.793893129771,-21.50381679389313,728.0733944954129,-36.972477064220186,-5.688073394495413,,
1760472464.453215,0,0.5247802734375,0.12451171875,0.125,9.412213740458014,-150.4732824427481,-21.50381679389313,469.72477064220186,-37.522935779816514,-5.688073394495413,,
1760472464.4744878,0,0.52490234375,0.12451171875,0.12506103515625,9.404580152671755,-127.02290076335878,-37.13740458015267,892.4770642201836,-37.706422018348626,-5.412844036697248,,
1760472464.485323,0,0.52508544921875,0.12451171875,0.125,9.404580152671755,-152.42748091603053,-21.50381679389313,681.1009174311927,-37.43119266055046,-5.412844036697248,,
1760472464.5067039,0,0.52520751953125,0.12457275390625,0.12493896484375,9.427480916030534,-123.1145038167939,-54.725190839694655,657.6146788990826,-37.15596330275229,-5.963302752293578,,
1760472464.5385377,0,0.525390625,0.12445068359375,0.1251220703125,9.427480916030534,-132.8854961832061,-27.366412213740457,845.5045871559633,-36.972477064220186,-5.688073394495413,,
1760472464.549316,0,0.5255126953125,0.12445068359375,0.12506103515625,9.419847328244275,-154.38167938931298,-31.27480916030534,610.6422018348624,-37.43119266055046,-5.137614678899083,,
1760472464.5708833,0,0.52569580078125,0.12451171875,0.12493896484375,9.412213740458014,-130.93129770992365,13.679389312977099,540.1834862385322,-37.3394495412844,-5.137614678899083,,
1760472464.6134841,0,0.52581787109375,0.12451171875,0.12506103515625,9.427480916030534,-168.06106870229007,-27.366412213740457,822.0183486238533,-37.43119266055046,-5.779816513761468,,
1760472464.6242616,0,0.5260009765625,0.12445068359375,0.12506103515625,9.435114503816793,-156.33587786259542,-54.725190839694655,915.9633027522937,-37.06422018348624,-5.412844036697248,,
1760472464.645571,0,0.526123046875,0.12451171875,0.1251220703125,9.396946564885496,-146.5648854961832,-33.229007633587784,892.4770642201836,-36.69724770642202,-6.055045871559633,,
1760472464.656349,0,0.52630615234375,0.12445068359375,0.12506103515625,9.412213740458014,-144.61068702290078,17.587786259541986,540.1834862385322,-37.247706422018354,-5.5045871559633035,,
1760472464.6672702,0,0.52642822265625,0.12445068359375,0.12506103515625,9.412213740458014,-152.42748091603053,-33.229007633587784,681.1009174311927,-36.69724770642202,-4.954128440366973,,
1760472464.678042,0,0.526611328125,0.12451171875,0.125,9.404580152671755,-160.24427480916032,-3.9160305343511452,305.3211009174312,-37.247706422018354,-5.137614678899083,,
1760472464.6994085,0,0.5267333984375,0.12451171875,0.12493896484375,9.396946564885496,-146.5648854961832,-33.229007633587784,516.6972477064221,-37.06422018348624,-5.412844036697248,,
1760472464.731341,0,0.52691650390625,0.12445068359375,0.125,9.412213740458014,-144.61068702290078,-52.770992366412216,563.6697247706422,-36.788990825688074,-5.779816513761468,,
1760472464.7421026,0,0.52703857421875,0.12451171875,0.12506103515625,9.419847328244275,-125.06870229007633,-37.13740458015267,587.1559633027523,-37.247706422018354,-5.5045871559633035,,
1760472464.7635128,0,0.5272216796875,0.12451171875,0.125,9.427480916030534,-138.74809160305344,1.9541984732824427,868.9908256880734,-36.60550458715596,-5.779816513761468,,
1760472464.7953644,0,0.52734375,0.12451171875,0.1251220703125,9.404580152671755,-160.24427480916032,-35.18320610687023,728.0733944954129,-36.88073394495413,-5.779816513761468,,
1760472464.827245,0,0.52752685546875,0.12457275390625,0.125,9.412213740458014,-134.83969465648855,-35.18320610687023,681.1009174311927,-36.60550458715596,-5.688073394495413,,
1760472464.8379889,0,0.52764892578125,0.12457275390625,0.1251220703125,9.419847328244275,-197.3740458015267,5.862595419847328,728.0733944954129,-36.51376146788991,-5.688073394495413,,
1760472464.859383,0,0.52783203125,0.12451171875,0.12506103515625,9.442748091603054,-166.10687022900763,-23.458015267175572,962.9357798165138,-36.60550458715596,-5.596330275229358,,
1760472464.8701077,0,0.5279541015625,0.12457275390625,0.125,9.396946564885496,-128.9770992366412,-15.641221374045802,728.0733944954129,-37.06422018348624,-5.963302752293578,,
1760472464.8912754,0,0.52813720703125,0.12457275390625,0.1251220703125,9.404580152671755,-150.4732824427481,-23.458015267175572,610.6422018348624,-37.3394495412844,-5.5045871559633035,,
1760472464.901766,0,0.52825927734375,0.12445068359375,0.12518310546875,9.419847328244275,-132.8854961832061,-37.13740458015267,939.4495412844037,-37.3394495412844,-5.596330275229358,,
1760472464.9228277,0,0.5284423828125,0.12451171875,0.1251220703125,9.404580152671755,-152.42748091603053,1.9541984732824427,516.6972477064221,-37.61467889908257,-5.596330275229358,,
1760472464.9547179,0,0.528564453125,0.12451171875,0.12518310546875,9.419847328244275,-140.70229007633588,-25.412213740458014,352.2935779816514,-36.788990825688074,-5.137614678899083,,
1760472464.9654608,0,0.52874755859375,0.12451171875,0.125,9.404580152671755,-152.42748091603053,-33.229007633587784,634.1284403669725,-36.51376146788991,-5.963302752293578,,
1760472464.9763165,0,0.52886962890625,0.12445068359375,0.1251220703125,9.412213740458014,-162.19847328244273,-48.86259541984733,540.1834862385322,-36.88073394495413,-5.229357798165138,,
1760472465.0082028,0,0.529052734375,0.1243896484375,0.12506103515625,9.419847328244275,-162.19847328244273,-11.732824427480915,681.1009174311927,-36.69724770642202,-5.5045871559633035,,
1760472465.0189488,0,0.5291748046875,0.12451171875,0.125,9.435114503816793,-148.51908396946564,-43.0,563.6697247706422,-36.88073394495413,-5.596330275229358,,
1760472465.0403905,0,0.52935791015625,0.12445068359375,0.125,9.427480916030534,-156.33587786259542,-11.732824427480915,493.2110091743119,-36.69724770642202,-4.862385321100918,,
1760472465.0722048,0,0.52947998046875,0.12451171875,0.125,9.419847328244275,-150.4732824427481,3.9083969465648853,469.72477064220186,-36.788990825688074,-5.412844036697248,,
1760472465.0829542,0,0.5296630859375,0.12451171875,0.125,9.419847328244275,-166.10687022900763,-9.778625954198473,1009.908256880734,-37.15596330275229,-5.5045871559633035,,
1760472465.1043663,0,0.52978515625,0.1243896484375,0.125,9.419847328244275,-115.29770992366412,-50.81679389312977,798.5321100917431,-37.3394495412844,-5.688073394495413,,
1760472465.1152668,0,0.52996826171875,0.1243896484375,0.125,9.419847328244275,-177.8320610687023,-44.954198473282446,610.6422018348624,-37.15596330275229,-5.5045871559633035,,
1760472465.1366265,0,0.53009033203125,0.1243896484375,0.125,9.404580152671755,-150.4732824427481,-50.81679389312977,728.0733944954129,-37.15596330275229,-5.045871559633028,,
1760472465.1688793,0,0.5302734375,0.12451171875,0.125,9.427480916030534,-134.83969465648855,-33.229007633587784,775.045871559633,-37.06422018348624,-5.5045871559633035,,
1760472465.179603,0,0.5303955078125,0.12445068359375,0.12506103515625,9.419847328244275,-144.61068702290078,-41.045801526717554,493.2110091743119,-36.88073394495413,-6.055045871559633,,
1760472465.2010293,0,0.53057861328125,0.12445068359375,0.12493896484375,9.412213740458014,-168.06106870229007,-13.687022900763358,704.5871559633028,-36.88073394495413,-5.596330275229358,,
1760472465.2329154,0,0.53070068359375,0.12445068359375,0.125,9.427480916030534,-136.793893129771,-52.770992366412216,375.7798165137615,-36.88073394495413,-5.5045871559633035,,
1760472465.2436247,0,0.5308837890625,0.1246337890625,0.12506103515625,9.412213740458014,-132.8854961832061,-15.641221374045802,728.0733944954129,-36.972477064220186,-5.779816513761468,,
1760472465.2650948,0,0.531005859375,0.12451171875,0.125,9.412213740458014,-140.70229007633588,-31.27480916030534,798.5321100917431,-37.43119266055046,-5.412844036697248,,
1760472465.275886,0,0.53118896484375,0.12457275390625,0.12493896484375,9.427480916030534,-123.1145038167939,-29.3206106870229,563.6697247706422,-37.06422018348624,-6.055045871559633,,
1760472465.2972598,0,0.53131103515625,0.12457275390625,0.12506103515625,9.435114503816793,-130.93129770992365,-13.687022900763358,540.1834862385322,-37.3394495412844,-5.5045871559633035,,
1760472465.3079731,0,0.531494140625,0.12451171875,0.125,9.435114503816793,-138.74809160305344,-13.687022900763358,868.9908256880734,-36.51376146788991,-5.963302752293578,,
1760472465.3293009,0,0.5316162109375,0.12451171875,0.125,9.419847328244275,-130.93129770992365,-52.770992366412216,422.7522935779817,-37.3394495412844,-5.871559633027523,,
1760472465.3612294,0,0.53179931640625,0.12451171875,0.1251220703125,9.412213740458014,-115.29770992366412,-43.0,399.26605504587155,-37.15596330275229,-5.5045871559633035,,
1760472465.3930862,0,0.53192138671875,0.12445068359375,0.125,9.404580152671755,-132.8854961832061,-56.6793893129771,634.1284403669725,-37.15596330275229,-5.229357798165138,,
1760472465.4038832,0,0.5321044921875,0.1243896484375,0.125,9.396946564885496,-134.83969465648855,-31.27480916030534,751.559633027523,-36.69724770642202,-5.5045871559633035,,
1760472465.4251366,0,0.5322265625,0.12445068359375,0.125,9.427480916030534,-156.33587786259542,-17.595419847328245,563.6697247706422,-37.522935779816514,-5.596330275229358,,
1760472465.4358861,0,0.53240966796875,0.12451171875,0.1248779296875,9.427480916030534,-130.93129770992365,-5.870229007633588,352.2935779816514,-36.69724770642202,-5.779816513761468,,
1760472465.457217,0,0.53253173828125,0.12445068359375,0.12493896484375,9.427480916030534,-140.70229007633588,-25.412213740458014,587.1559633027523,-36.3302752293578,-5.412844036697248,,
1760472465.468073,0,0.53271484375,0.12457275390625,0.1251220703125,9.404580152671755,-144.61068702290078,-13.687022900763358,610.6422018348624,-37.06422018348624,-5.871559633027523,,
1760472465.4893339,0,0.5328369140625,0.12451171875,0.12506103515625,9.404580152671755,-164.15267175572518,-41.045801526717554,516.6972477064221,-37.43119266055046,-5.321100917431193,,
1760472465.5211456,0,0.53302001953125,0.12445068359375,0.1251220703125,9.396946564885496,-134.83969465648855,-39.091603053435115,422.7522935779817,-37.43119266055046,-5.871559633027523,,
1760472465.5319192,0,0.53314208984375,0.12457275390625,0.12506103515625,9.412213740458014,-130.93129770992365,-0.007633587786259542,399.26605504587155,-37.06422018348624,-5.963302752293578,,
1760472465.5535107,0,0.5333251953125,0.12457275390625,0.125,9.404580152671755,-142.65648854961833,-62.541984732824424,469.72477064220186,-37.15596330275229,-5.137614678899083,,
1760472465.5749536,0,0.533447265625,0.12451171875,0.12493896484375,9.404580152671755,-173.9236641221374,-23.458015267175572,822.0183486238533,-37.79816513761468,-5.871559633027523,,
1760472465.585833,0,0.53363037109375,0.1243896484375,0.12493896484375,9.427480916030534,-162.19847328244273,-35.18320610687023,375.7798165137615,-36.69724770642202,-5.688073394495413,,
1760472465.6072652,0,0.53375244140625,0.12451171875,0.12506103515625,9.419847328244275,-136.793893129771,-15.641221374045802,469.72477064220186,-37.522935779816514,-5.688073394495413,,
1760472465.618097,0,0.533935546875,0.12451171875,0.125,9.404580152671755,-150.4732824427481,-39.091603053435115,798.5321100917431,-36.69724770642202,-5.412844036697248,,
1760472465.6394787,0,0.5340576171875,0.12457275390625,0.12493896484375,9.389312977099237,-171.96946564885496,-37.13740458015267,469.72477064220186,-37.3394495412844,-5.412844036697248,,
1760472465.6714396,0,0.53424072265625,0.12445068359375,0.125,9.412213740458014,-140.70229007633588,-11.732824427480915,657.6146788990826,-36.788990825688074,-5.688073394495413,,
1760472465.6822188,0,0.53436279296875,0.12451171875,0.125,9.427480916030534,-160.24427480916032,-5.870229007633588,446.2385321100918,-37.15596330275229,-5.779816513761468,,
1760472465.7035358,0,0.5345458984375,0.12457275390625,0.125,9.419847328244275,-160.24427480916032,-0.007633587786259542,422.7522935779817,-37.3394495412844,-5.412844036697248,,
1760472465.7352436,0,0.53466796875,0.12451171875,0.125244140625,9.419847328244275,-150.4732824427481,-5.870229007633588,587.1559633027523,-37.247706422018354,-5.5045871559633035,,
1760472465.7459824,0,0.53485107421875,0.12451171875,0.125,9.412213740458014,-162.19847328244273,-23.458015267175572,587.1559633027523,-37.15596330275229,-5.871559633027523,,
1760472465.7673495,0,0.53497314453125,0.12445068359375,0.125,9.427480916030534,-150.4732824427481,0.0,328.8073394495413,-36.788990825688074,-5.871559633027523,,
1760472465.7991896,0,0.53515625,0.1246337890625,0.1251220703125,9.419847328244275,-144.61068702290078,-43.0,540.1834862385322,-37.3394495412844,-6.513761467889909,,
1760472465.809921,0,0.5352783203125,0.12445068359375,0.125,9.412213740458014,-175.87786259541986,-33.229007633587784,446.2385321100918,-36.788990825688074,-5.412844036697248,,
1760472465.8312483,0,0.53546142578125,0.1246337890625,0.1251220703125,9.419847328244275,-158.29007633587787,-48.86259541984733,516.6972477064221,-36.972477064220186,-5.871559633027523,,
1760472465.8420515,0,0.53558349609375,0.12451171875,0.12506103515625,9.419847328244275,-128.9770992366412,-44.954198473282446,352.2935779816514,-37.522935779816514,-5.596330275229358,,
1760472465.8741586,0,0.5357666015625,0.12445068359375,0.12493896484375,9.427480916030534,-170.01526717557252,-37.13740458015267,634.1284403669725,-36.788990825688074,-5.137614678899083,,
1760472465.8848932,0,0.535888671875,0.12451171875,0.125,9.427480916030534,-144.61068702290078,-37.13740458015267,657.6146788990826,-36.972477064220186,-5.779816513761468,,
1760472465.9062648,0,0.53607177734375,0.12445068359375,0.12493896484375,9.412213740458014,-144.61068702290078,-9.778625954198473,422.7522935779817,-37.706422018348626,-5.688073394495413,,
1760472465.9276414,0,0.53619384765625,0.12445068359375,0.125,9.396946564885496,-150.4732824427481,-1.9618320610687023,493.2110091743119,-36.69724770642202,-5.963302752293578,,
1760472465.9384015,0,0.536376953125,0.12445068359375,0.125,9.412213740458014,-113.34351145038168,-5.870229007633588,728.0733944954129,-36.972477064220186,-5.596330275229358,,
1760472465.9598584,0,0.5364990234375,0.12451171875,0.12506103515625,9.427480916030534,-123.1145038167939,-0.007633587786259542,352.2935779816514,-36.788990825688074,-5.229357798165138,,
1760472465.9707603,0,0.53668212890625,0.12451171875,0.12506103515625,9.435114503816793,-117.25190839694656,-35.18320610687023,446.2385321100918,-36.788990825688074,-5.5045871559633035,,
1760472465.992141,0,0.53680419921875,0.12445068359375,0.125,9.404580152671755,-125.06870229007633,-39.091603053435115,681.1009174311927,-37.522935779816514,-5.779816513761468,,
1760472466.0240226,0,0.5369873046875,0.1246337890625,0.12506103515625,9.412213740458014,-179.78625954198472,-31.27480916030534,563.6697247706422,-36.88073394495413,-6.422018348623854,,
1760472466.0347915,0,0.537109375,0.12469482421875,0.12506103515625,9.427480916030534,-140.70229007633588,-46.908396946564885,704.5871559633028,-36.972477064220186,-5.871559633027523,,
1760472466.0562317,0,0.53729248046875,0.12445068359375,0.12506103515625,9.412213740458014,-158.29007633587787,-27.366412213740457,634.1284403669725,-37.247706422018354,-5.779816513761468,,
1760472466.0669608,0,0.53741455078125,0.12445068359375,0.1251220703125,9.427480916030534,-128.9770992366412,-31.27480916030534,845.5045871559633,-36.51376146788991,-5.688073394495413,,
1760472466.0881648,0,0.53759765625,0.12457275390625,0.12493896484375,9.427480916030534,-162.19847328244273,-66.45038167938931,446.2385321100918,-36.972477064220186,-5.688073394495413,,
1760472466.1200264,0,0.5377197265625,0.12445068359375,0.12506103515625,9.419847328244275,-170.01526717557252,-52.770992366412216,845.5045871559633,-37.3394495412844,-5.5045871559633035,,
1760472466.1308057,0,0.53790283203125,0.1243896484375,0.125,9.412213740458014,-140.70229007633588,-27.366412213740457,939.4495412844037,-36.788990825688074,-6.055045871559633,,
1760472466.1521235,0,0.53802490234375,0.12451171875,0.12506103515625,9.412213740458014,-134.83969465648855,-43.0,751.559633027523,-36.972477064220186,-4.678899082568807,,
1760472466.1839142,0,0.5382080078125,0.12445068359375,0.125,9.435114503816793,-142.65648854961833,-78.17557251908397,305.3211009174312,-36.972477064220186,-5.045871559633028,,
1760472466.194643,0,0.538330078125,0.12457275390625,0.125,9.412213740458014,-164.15267175572518,-44.954198473282446,657.6146788990826,-37.61467889908257,-5.5045871559633035,,
1760472466.2160094,0,0.53851318359375,0.12451171875,0.125,9.412213740458014,-160.24427480916032,-35.18320610687023,587.1559633027523,-37.247706422018354,-5.5045871559633035,,
1760472466.247921,0,0.53863525390625,0.12457275390625,0.125,9.404580152671755,-168.06106870229007,-44.954198473282446,446.2385321100918,-36.69724770642202,-5.5045871559633035,,
1760472466.2586331,0,0.538818359375,0.12457275390625,0.125,9.435114503816793,-142.65648854961833,-15.641221374045802,915.9633027522937,-37.06422018348624,-6.055045871559633,,
1760472466.2800548,0,0.5389404296875,0.12451171875,0.12518310546875,9.412213740458014,-160.24427480916032,-29.3206106870229,563.6697247706422,-36.788990825688074,-5.596330275229358,,
1760472466.3119614,0,0.53912353515625,0.12451171875,0.12493896484375,9.419847328244275,-162.19847328244273,-33.229007633587784,634.1284403669725,-36.60550458715596,-5.688073394495413,,
1760472466.3227465,0,0.53924560546875,0.12445068359375,0.12506103515625,9.412213740458014,-150.4732824427481,-3.9160305343511452,634.1284403669725,-36.88073394495413,-4.862385321100918,,
1760472466.3441095,0,0.5394287109375,0.12451171875,0.12518310546875,9.419847328244275,-132.8854961832061,5.862595419847328,540.1834862385322,-36.972477064220186,-5.871559633027523,,
1760472466.3548682,0,0.53955078125,0.12445068359375,0.125,9.419847328244275,-154.38167938931298,-5.870229007633588,516.6972477064221,-37.3394495412844,-5.963302752293578,,
1760472466.3761675,0,0.53973388671875,0.12445068359375,0.125,9.419847328244275,-119.20610687022901,-35.18320610687023,375.7798165137615,-37.15596330275229,-5.871559633027523,,
1760472466.3869343,0,0.53985595703125,0.12451171875,0.1248779296875,9.427480916030534,-117.25190839694656,-35.18320610687023,587.1559633027523,-36.788990825688074,-5.779816513761468,,
1760472466.4083157,0,0.5400390625,0.12451171875,0.12506103515625,9.427480916030534,-123.1145038167939,-60.587786259541986,610.6422018348624,-37.79816513761468,-5.412844036697248,,
1760472466.4402266,0,0.5401611328125,0.12457275390625,0.125,9.419847328244275,-166.10687022900763,-25.412213740458014,187.88990825688074,-37.247706422018354,-5.045871559633028,,
1760472466.4509747,0,0.54034423828125,0.12457275390625,0.12506103515625,9.404580152671755,-142.65648854961833,-52.770992366412216,446.2385321100918,-37.06422018348624,-5.871559633027523,,
1760472466.472344,0,0.54046630859375,0.12445068359375,0.12493896484375,9.435114503816793,-130.93129770992365,-35.18320610687023,469.72477064220186,-37.3394495412844,-6.055045871559633,,
1760472466.48318,0,0.5406494140625,0.12451171875,0.125,9.419847328244275,-166.10687022900763,-41.045801526717554,258.34862385321105,-36.69724770642202,-5.688073394495413,,
1760472466.5045433,0,0.540771484375,0.12457275390625,0.12506103515625,9.427480916030534,-177.8320610687023,-43.0,469.72477064220186,-37.247706422018354,-5.412844036697248,,
1760472466.5364957,0,0.54095458984375,0.1243896484375,0.1248779296875,9.419847328244275,-138.74809160305344,-48.86259541984733,352.2935779816514,-36.972477064220186,-5.871559633027523,,
1760472466.547279,0,0.54107666015625,0.12457275390625,0.1251220703125,9.419847328244275,-152.42748091603053,-11.732824427480915,822.0183486238533,-36.972477064220186,-5.321100917431193,,
1760472466.5581255,0,0.541259765625,0.1243896484375,0.1251220703125,9.412213740458014,-123.1145038167939,-17.595419847328245,587.1559633027523,-37.61467889908257,-5.137614678899083,,
1760472466.5900104,0,0.5413818359375,0.12451171875,0.12506103515625,9.427480916030534,-119.20610687022901,-23.458015267175572,845.5045871559633,-36.788990825688074,-5.321100917431193,,
1760472466.6008024,0,0.54156494140625,0.12457275390625,0.12506103515625,9.419847328244275,-195.4198473282443,-50.81679389312977,610.6422018348624,-37.43119266055046,-6.330275229357799,,
1760472466.622129,0,0.54168701171875,0.12451171875,0.12506103515625,9.404580152671755,-121.16030534351145,-48.86259541984733,422.7522935779817,-36.972477064220186,-5.412844036697248,,
1760472466.6540394,0,0.5418701171875,0.12445068359375,0.12506103515625,9.419847328244275,-179.78625954198472,-43.0,798.5321100917431,-37.15596330275229,-5.688073394495413,,
1760472466.6647573,0,0.5419921875,0.12445068359375,0.1251220703125,9.419847328244275,-138.74809160305344,-48.86259541984733,563.6697247706422,-36.60550458715596,-5.045871559633028,,
1760472466.6860619,0,0.54217529296875,0.12451171875,0.125,9.435114503816793,-136.793893129771,-15.641221374045802,892.4770642201836,-36.972477064220186,-5.5045871559633035,,
1760472466.696975,0,0.54229736328125,0.12457275390625,0.125,9.419847328244275,-154.38167938931298,-70.3587786259542,657.6146788990826,-36.972477064220186,-5.412844036697248,,
1760472466.7183897,0,0.54248046875,0.12451171875,0.1251220703125,9.427480916030534,-160.24427480916032,-19.549618320610687,728.0733944954129,-37.98165137614679,-5.596330275229358,,
1760472466.7497063,0,0.5426025390625,0.12451171875,0.12506103515625,9.435114503816793,-130.93129770992365,-39.091603053435115,563.6697247706422,-36.972477064220186,-5.5045871559633035,,
1760472466.7600424,0,0.54278564453125,0.12445068359375,0.12506103515625,9.427480916030534,-144.61068702290078,-39.091603053435115,657.6146788990826,-36.69724770642202,-5.596330275229358,,
1760472466.780741,0,0.54290771484375,0.12451171875,0.125,9.419847328244275,-142.65648854961833,-43.0,446.2385321100918,-37.06422018348624,-5.229357798165138,,
1760472466.7911353,0,0.5430908203125,0.1246337890625,0.12506103515625,9.419847328244275,-134.83969465648855,-31.27480916030534,610.6422018348624,-37.43119266055046,-5.5045871559633035,,
1760472466.8117785,0,0.543212890625,0.12451171875,0.125,9.419847328244275,-140.70229007633588,-35.18320610687023,704.5871559633028,-36.972477064220186,-5.963302752293578,,
1760472466.8427184,0,0.54339599609375,0.12451171875,0.1251220703125,9.419847328244275,-148.51908396946564,-33.229007633587784,516.6972477064221,-36.972477064220186,-6.330275229357799,,
