timestamp,packet_id,accel_x,accel_y,accel_z,gyro_x,gyro_y,gyro_z,mag_x,mag_y,mag_z,battery,temperature
1760476413.9681666,0,-0.6187744140625,0.1248779296875,0.12542724609375,9.419847328244275,-132.8854961832061,-0.007633587786259542,1808.6238532110092,-34.4954128440367,-8.990825688073395,,
1760476413.99004,0,-0.61859130859375,0.12530517578125,0.12799072265625,9.389312977099237,-142.65648854961833,-17.595419847328245,1103.9449541284403,-33.76146788990826,-8.623853211009175,,
1760476414.0214345,0,-0.61846923828125,0.12481689453125,0.12554931640625,9.419847328244275,-154.38167938931298,35.17557251908397,634.1284403669725,-34.31192660550459,-8.623853211009175,,
1760476414.0322556,0,-0.6182861328125,0.124755859375,0.12567138671875,9.412213740458014,-115.29770992366412,-5.870229007633588,915.9633027522937,-34.12844036697248,-9.26605504587156,,
1760476414.0534678,0,-0.6181640625,0.12457275390625,0.12445068359375,9.419847328244275,-132.8854961832061,52.76335877862596,704.6788990825688,-34.862385321100916,-8.807339449541285,,
1760476414.0642645,0,-0.61798095703125,0.12493896484375,0.12542724609375,9.404580152671755,-87.93893129770993,162.19847328244273,2325.229357798165,-34.03669724770642,-8.715596330275229,,
1760476414.0853214,0,-0.61785888671875,0.1251220703125,0.12567138671875,9.427480916030534,-181.74045801526717,-93.80916030534351,-46.88073394495413,-33.57798165137615,-9.08256880733945,,
1760476414.1169133,0,-0.61767578125,0.12493896484375,0.12713623046875,9.412213740458014,-140.70229007633588,-78.17557251908397,587.1559633027523,-33.76146788990826,-9.08256880733945,,
1760476414.1274593,0,-0.6175537109375,0.12493896484375,0.1256103515625,9.419847328244275,-175.87786259541986,-72.31297709923665,657.6146788990826,-34.12844036697248,-8.807339449541285,,
1760476414.1488318,0,-0.61737060546875,0.12493896484375,0.1256103515625,9.412213740458014,-142.65648854961833,-35.18320610687023,469.72477064220186,-34.67889908256881,-8.715596330275229,,
1760476414.1806407,0,-0.61724853515625,0.1248779296875,0.12548828125,9.419847328244275,-171.96946564885496,-35.18320610687023,375.7798165137615,-33.94495412844037,-8.715596330275229,,
1760476414.1914022,0,-0.6170654296875,0.12542724609375,0.12530517578125,9.450381679389313,232.54961832061068,132.87786259541986,1174.3119266055046,-34.4954128440367,-9.44954128440367,,
1760476414.212862,0,-0.616943359375,0.1248779296875,0.1229248046875,9.404580152671755,-74.25954198473282,209.09923664122138,-727.8899082568807,-33.94495412844037,-8.623853211009175,,
1760476414.2236104,0,-0.61676025390625,0.12469482421875,0.12835693359375,9.404580152671755,-207.14503816793894,-173.93129770992365,-1831.8348623853212,-34.03669724770642,-8.990825688073395,,
1760476414.2450337,0,-0.61663818359375,0.1248779296875,0.12554931640625,9.412213740458014,-136.793893129771,0.0,681.1009174311927,-33.76146788990826,-8.256880733944955,,
1760476414.2769978,0,-0.616455078125,0.124755859375,0.12548828125,9.427480916030534,-156.33587786259542,-31.27480916030534,587.1559633027523,-34.58715596330275,-9.08256880733945,,
1760476414.2875743,0,-0.6163330078125,0.12493896484375,0.1256103515625,9.419847328244275,-144.61068702290078,-50.81679389312977,540.1834862385322,-34.03669724770642,-9.63302752293578,,
1760476414.297986,0,-0.61614990234375,0.1248779296875,0.12554931640625,9.435114503816793,-150.4732824427481,-56.6793893129771,587.1559633027523,-33.94495412844037,-9.541284403669724,,
1760476414.308394,0,-0.61602783203125,0.12493896484375,0.12567138671875,9.419847328244275,-150.4732824427481,-54.725190839694655,657.6146788990826,-33.39449541284404,-9.63302752293578,,
1760476414.3393967,0,-0.6158447265625,0.1248779296875,0.1256103515625,9.419847328244275,-130.93129770992365,-11.732824427480915,751.559633027523,-33.76146788990826,-8.807339449541285,,
1760476414.3707395,0,-0.61572265625,0.1248779296875,0.12548828125,9.404580152671755,-146.5648854961832,-44.954198473282446,962.9357798165138,-34.03669724770642,-9.174311926605505,,
1760476414.4024212,0,-0.61553955078125,0.1248779296875,0.1256103515625,9.427480916030534,-144.61068702290078,-33.229007633587784,751.559633027523,-34.22018348623853,-8.715596330275229,,
1760476414.4131873,0,-0.61541748046875,0.12481689453125,0.12548828125,9.412213740458014,-146.5648854961832,-37.13740458015267,868.9908256880734,-33.76146788990826,-9.08256880733945,,
1760476414.4345632,0,-0.615234375,0.12493896484375,0.1256103515625,9.427480916030534,-113.34351145038168,-3.9160305343511452,728.0733944954129,-33.85321100917431,-8.807339449541285,,
1760476414.445349,0,-0.6151123046875,0.1248779296875,0.1256103515625,9.427480916030534,-128.9770992366412,-43.0,610.6422018348624,-33.48623853211009,-8.89908256880734,,
1760476414.4668288,0,-0.61492919921875,0.12493896484375,0.12554931640625,9.419847328244275,-156.33587786259542,-87.94656488549619,704.5871559633028,-33.94495412844037,-9.44954128440367,,
1760476414.4775603,0,-0.61480712890625,0.1248779296875,0.1256103515625,9.427480916030534,-166.10687022900763,-160.25190839694656,-234.86238532110093,-33.57798165137615,-8.715596330275229,,
1760476414.4988573,0,-0.6146240234375,0.12445068359375,0.12701416015625,9.412213740458014,-119.20610687022901,-13.687022900763358,328.8073394495413,-34.12844036697248,-8.89908256880734,,
1760476414.5197704,0,-0.614501953125,0.12493896484375,0.12554931640625,9.412213740458014,-177.8320610687023,-9.778625954198473,892.4770642201836,-33.76146788990826,-8.807339449541285,,
1760476414.5302734,0,-0.61431884765625,0.12493896484375,0.12548828125,9.404580152671755,-171.96946564885496,-41.045801526717554,1009.908256880734,-33.39449541284404,-9.08256880733945,,
1760476414.5514228,0,-0.61419677734375,0.1248779296875,0.12567138671875,9.427480916030534,-187.6030534351145,-54.725190839694655,657.6146788990826,-33.48623853211009,-9.26605504587156,,
1760476414.5833387,0,-0.614013671875,0.12493896484375,0.125732421875,9.412213740458014,-154.38167938931298,-27.366412213740457,728.0733944954129,-33.48623853211009,-9.44954128440367,,
1760476414.5941477,0,-0.6138916015625,0.1248779296875,0.1256103515625,9.427480916030534,-154.38167938931298,-29.3206106870229,728.0733944954129,-33.76146788990826,-8.807339449541285,,
1760476414.6153042,0,-0.61370849609375,0.125,0.12548828125,9.404580152671755,-144.61068702290078,-27.366412213740457,352.2935779816514,-34.77064220183486,-8.715596330275229,,
1760476414.6260438,0,-0.61358642578125,0.12493896484375,0.12554931640625,9.427480916030534,-115.29770992366412,-15.641221374045802,681.1009174311927,-33.6697247706422,-8.807339449541285,,
1760476414.6474752,0,-0.6134033203125,0.1248779296875,0.12542724609375,9.404580152671755,-117.25190839694656,-27.366412213740457,657.6146788990826,-33.94495412844037,-9.44954128440367,,
1760476414.679371,0,-0.61328125,0.12493896484375,0.12548828125,9.404580152671755,-130.93129770992365,-39.091603053435115,469.72477064220186,-33.02752293577982,-9.357798165137615,,
1760476414.6901476,0,-0.61309814453125,0.1248779296875,0.1256103515625,9.435114503816793,-152.42748091603053,-41.045801526717554,845.5045871559633,-34.03669724770642,-8.807339449541285,,
1760476414.711125,0,-0.61297607421875,0.1248779296875,0.12554931640625,9.404580152671755,-136.793893129771,-54.725190839694655,493.2110091743119,-33.94495412844037,-8.89908256880734,,
1760476414.7422605,0,-0.61279296875,0.1248779296875,0.12567138671875,9.419847328244275,-160.24427480916032,-44.954198473282446,375.7798165137615,-34.03669724770642,-8.990825688073395,,
1760476414.752906,0,-0.6126708984375,0.1248779296875,0.12567138671875,9.427480916030534,-142.65648854961833,-17.595419847328245,728.0733944954129,-33.76146788990826,-9.26605504587156,,
1760476414.7743187,0,-0.61248779296875,0.12493896484375,0.12554931640625,9.419847328244275,-117.25190839694656,-5.870229007633588,751.559633027523,-33.11926605504587,-8.715596330275229,,
1760476414.806259,0,-0.61236572265625,0.1248779296875,0.12542724609375,9.435114503816793,-148.51908396946564,-7.824427480916031,798.5321100917431,-33.48623853211009,-9.08256880733945,,
1760476414.8168738,0,-0.6121826171875,0.12481689453125,0.1256103515625,9.427480916030534,-148.51908396946564,-1.9618320610687023,845.5045871559633,-33.211009174311926,-8.807339449541285,,
1760476414.837982,0,-0.612060546875,0.1248779296875,0.12554931640625,9.442748091603054,-181.74045801526717,-25.412213740458014,1150.8256880733945,-34.67889908256881,-9.44954128440367,,
1760476414.848744,0,-0.61187744140625,0.1248779296875,0.1256103515625,9.419847328244275,-154.38167938931298,-48.86259541984733,563.6697247706422,-34.403669724770644,-8.89908256880734,,
1760476414.8700514,0,-0.61175537109375,0.1248779296875,0.12567138671875,9.412213740458014,-136.793893129771,-23.458015267175572,493.2110091743119,-33.85321100917431,-8.807339449541285,,
1760476414.8914206,0,-0.611572265625,0.12481689453125,0.12554931640625,9.419847328244275,-142.65648854961833,-68.40458015267176,563.6697247706422,-34.03669724770642,-9.174311926605505,,
1760476414.9024477,0,-0.6114501953125,0.1248779296875,0.12567138671875,9.427480916030534,-123.1145038167939,-7.824427480916031,868.9908256880734,-33.39449541284404,-9.26605504587156,,
1760476414.923804,0,-0.61126708984375,0.1248779296875,0.12567138671875,9.435114503816793,-154.38167938931298,-37.13740458015267,728.0733944954129,-33.6697247706422,-8.715596330275229,,
1760476414.955599,0,-0.61114501953125,0.12493896484375,0.12567138671875,9.435114503816793,-173.9236641221374,-7.824427480916031,352.2935779816514,-33.6697247706422,-8.715596330275229,,
1760476414.9661076,0,-0.6109619140625,0.1248779296875,0.12554931640625,9.419847328244275,-134.83969465648855,-9.778625954198473,704.5871559633028,-34.31192660550459,-8.89908256880734,,
1760476414.9870014,0,-0.61083984375,0.12493896484375,0.1256103515625,9.412213740458014,-130.93129770992365,-11.732824427480915,728.0733944954129,-33.39449541284404,-9.26605504587156,,
1760476415.0180163,0,-0.61065673828125,0.12481689453125,0.12567138671875,9.404580152671755,-138.74809160305344,48.85496183206107,822.0183486238533,-33.76146788990826,-9.08256880733945,,
1760476415.028437,0,-0.61053466796875,0.1248779296875,0.1256103515625,9.427480916030534,-107.48091603053435,9.770992366412214,751.559633027523,-33.85321100917431,-9.26605504587156,,
1760476415.0490708,0,-0.6103515625,0.12493896484375,0.12554931640625,9.427480916030534,-144.61068702290078,0.0,610.6422018348624,-33.211009174311926,-9.08256880733945,,
1760476415.0594616,0,-0.6102294921875,0.12493896484375,0.12548828125,9.412213740458014,-150.4732824427481,-5.870229007633588,704.5871559633028,-33.48623853211009,-9.26605504587156,,
1760476415.0810819,0,-0.61004638671875,0.12493896484375,0.12542724609375,9.396946564885496,-160.24427480916032,-52.770992366412216,446.2385321100918,-35.137614678899084,-9.174311926605505,,
1760476415.1143644,0,-0.60992431640625,0.1248779296875,0.125732421875,9.427480916030534,-119.20610687022901,-48.86259541984733,610.6422018348624,-33.6697247706422,-8.990825688073395,,
1760476415.1247473,0,-0.6097412109375,0.12493896484375,0.12548828125,9.404580152671755,-148.51908396946564,7.816793893129771,446.2385321100918,-33.48623853211009,-9.357798165137615,,
1760476415.1457129,0,-0.609619140625,0.12493896484375,0.12542724609375,9.419847328244275,-117.25190839694656,-13.687022900763358,540.1834862385322,-33.211009174311926,-9.08256880733945,,
1760476415.1566336,0,-0.60943603515625,0.125,0.12542724609375,9.419847328244275,-130.93129770992365,13.679389312977099,845.5045871559633,-34.22018348623853,-8.990825688073395,,
1760476415.1784632,0,-0.60931396484375,0.12493896484375,0.12554931640625,9.419847328244275,-140.70229007633588,3.9083969465648853,892.4770642201836,-33.94495412844037,-8.807339449541285,,
1760476415.2098317,0,-0.609130859375,0.1248779296875,0.1256103515625,9.412213740458014,-144.61068702290078,-44.954198473282446,751.559633027523,-34.03669724770642,-8.715596330275229,,
1760476415.2219539,0,-0.6090087890625,0.12493896484375,0.12554931640625,9.427480916030534,-132.8854961832061,13.679389312977099,610.6422018348624,-33.76146788990826,-9.08256880733945,,
1760476415.242688,0,-0.60882568359375,0.1248779296875,0.12548828125,9.396946564885496,-138.74809160305344,19.541984732824428,1761.467889908257,-33.6697247706422,-8.715596330275229,,
1760476415.2656393,0,-0.60870361328125,0.125732421875,0.1260986328125,9.419847328244275,-160.24427480916032,-5.870229007633588,47.1559633027523,-34.03669724770642,-9.81651376146789,,
1760476415.2760878,0,-0.6085205078125,0.1241455078125,0.12396240234375,9.427480916030534,-160.24427480916032,-50.81679389312977,2442.7522935779816,-33.85321100917431,-9.26605504587156,,
1760476415.2968512,0,-0.6083984375,0.12335205078125,0.1236572265625,9.419847328244275,-156.33587786259542,-43.0,-234.58715596330276,-33.6697247706422,-9.357798165137615,,
1760476415.3305218,0,-0.60821533203125,0.124267578125,0.12457275390625,9.389312977099237,-222.77862595419847,175.87786259541986,728.9908256880734,-34.22018348623853,-8.990825688073395,,
1760476415.3409953,0,-0.60809326171875,0.1263427734375,0.126953125,9.49618320610687,121.16030534351145,-95.77099236641222,1269.0825688073394,-33.11926605504587,-9.81651376146789,,
1760476415.3617456,0,-0.60791015625,0.126220703125,0.12872314453125,9.419847328244275,-154.38167938931298,-138.75572519083968,187.88990825688074,-33.57798165137615,-9.44954128440367,,
1760476415.3730907,0,-0.6077880859375,0.12493896484375,0.125732421875,9.412213740458014,-164.15267175572518,-7.824427480916031,610.6422018348624,-32.84403669724771,-9.26605504587156,,
1760476415.395827,0,-0.60760498046875,0.12506103515625,0.12567138671875,9.427480916030534,-144.61068702290078,-35.18320610687023,540.1834862385322,-33.48623853211009,-9.724770642201836,,
1760476415.4062757,0,-0.60748291015625,0.12603759765625,0.127685546875,9.435114503816793,-130.93129770992365,29.31297709923664,2160.8256880733943,-33.57798165137615,-9.26605504587156,,
1760476415.4381301,0,-0.6072998046875,0.1258544921875,0.125244140625,9.427480916030534,238.41221374045801,197.36641221374046,-2066.238532110092,-33.76146788990826,-9.08256880733945,,
1760476415.4699056,0,-0.607177734375,0.1239013671875,0.1246337890625,9.427480916030534,-175.87786259541986,31.267175572519083,2302.0183486238534,-32.20183486238532,-9.357798165137615,,
1760476415.4803607,0,-0.60699462890625,0.124755859375,0.12542724609375,9.435114503816793,-203.23664122137404,-76.22137404580153,-2442.3853211009173,-33.211009174311926,-9.908256880733946,,
1760476415.5018146,0,-0.60687255859375,0.12322998046875,0.12481689453125,9.419847328244275,-148.51908396946564,72.30534351145039,-1338.7155963302753,-32.6605504587156,-10.0,,
1760476415.5328372,0,-0.606689453125,0.1248779296875,0.12567138671875,9.419847328244275,-140.70229007633588,-35.18320610687023,962.9357798165138,-32.477064220183486,-9.81651376146789,,
1760476415.5440335,0,-0.6065673828125,0.1246337890625,0.12567138671875,9.419847328244275,-103.57251908396947,170.01526717557252,422.7522935779817,-33.11926605504587,-9.357798165137615,,
1760476415.5662162,0,-0.60638427734375,0.1248779296875,0.12548828125,9.450381679389313,-244.27480916030535,89.8854961832061,-1104.0366972477066,-32.38532110091743,-10.18348623853211,,
1760476415.5789824,0,-0.60626220703125,0.1251220703125,0.1256103515625,9.427480916030534,-152.42748091603053,-85.99236641221374,-1197.9816513761468,-32.75229357798165,-10.091743119266056,,
1760476415.599803,0,-0.6060791015625,0.125,0.1256103515625,9.412213740458014,-146.5648854961832,-43.0,587.1559633027523,-32.84403669724771,-9.81651376146789,,
1760476415.6110134,0,-0.60595703125,0.12493896484375,0.12554931640625,9.419847328244275,-136.793893129771,-25.412213740458014,775.045871559633,-32.75229357798165,-10.642201834862385,,
1760476415.6318252,0,-0.60577392578125,0.12493896484375,0.12542724609375,9.419847328244275,-140.70229007633588,-1.9618320610687023,610.6422018348624,-32.477064220183486,-9.724770642201836,,
1760476415.6647232,0,-0.60565185546875,0.1248779296875,0.1256103515625,9.427480916030534,-132.8854961832061,-35.18320610687023,164.40366972477065,-32.93577981651376,-9.357798165137615,,
1760476415.6750972,0,-0.60546875,0.12548828125,0.12548828125,9.442748091603054,-158.29007633587787,-140.70992366412213,2324.8623853211006,-33.211009174311926,-10.0,,
1760476415.695855,0,-0.6053466796875,0.12493896484375,0.125732421875,9.435114503816793,-134.83969465648855,-33.229007633587784,328.8073394495413,-33.02752293577982,-9.81651376146789,,
1760476415.7062876,0,-0.60516357421875,0.12481689453125,0.12567138671875,9.427480916030534,-136.793893129771,-17.595419847328245,-798.6238532110092,-32.75229357798165,-10.0,,
1760476415.7270348,0,-0.60504150390625,0.12493896484375,0.1256103515625,9.427480916030534,-154.38167938931298,-56.6793893129771,493.2110091743119,-32.6605504587156,-9.81651376146789,,
1760476415.7580628,0,-0.6048583984375,0.1248779296875,0.12554931640625,9.435114503816793,-132.8854961832061,-44.954198473282446,962.9357798165138,-33.02752293577982,-9.63302752293578,,
1760476415.7684712,0,-0.604736328125,0.12493896484375,0.12567138671875,9.412213740458014,-152.42748091603053,-3.9160305343511452,657.6146788990826,-33.211009174311926,-9.908256880733946,,
1760476415.7892077,0,-0.60455322265625,0.12493896484375,0.1256103515625,9.404580152671755,-130.93129770992365,-43.0,845.5045871559633,-34.22018348623853,-10.0,,
1760476415.8202808,0,-0.60443115234375,0.12493896484375,0.12554931640625,9.435114503816793,-121.16030534351145,-17.595419847328245,751.559633027523,-33.30275229357798,-9.81651376146789,,
1760476415.830713,0,-0.604248046875,0.12493896484375,0.1256103515625,9.427480916030534,-170.01526717557252,-48.86259541984733,587.1559633027523,-32.477064220183486,-9.63302752293578,,
1760476415.8515353,0,-0.6041259765625,0.125,0.12554931640625,9.427480916030534,-148.51908396946564,-78.17557251908397,540.1834862385322,-32.93577981651376,-9.724770642201836,,
1760476415.8619885,0,-0.60394287109375,0.12493896484375,0.12567138671875,9.435114503816793,-170.01526717557252,-17.595419847328245,704.5871559633028,-33.48623853211009,-9.63302752293578,,
1760476415.8828197,0,-0.60382080078125,0.12493896484375,0.1256103515625,9.427480916030534,-150.4732824427481,-56.6793893129771,446.2385321100918,-33.11926605504587,-9.81651376146789,,
1760476415.9138093,0,-0.6036376953125,0.1248779296875,0.1256103515625,9.404580152671755,-164.15267175572518,-23.458015267175572,822.0183486238533,-33.211009174311926,-9.63302752293578,,
1760476415.9241986,0,-0.603515625,0.1248779296875,0.1256103515625,9.427480916030534,-134.83969465648855,-27.366412213740457,587.1559633027523,-32.477064220183486,-9.908256880733946,,
1760476415.944994,0,-0.60333251953125,0.1248779296875,0.1256103515625,9.419847328244275,-152.42748091603053,-72.31297709923665,469.72477064220186,-32.38532110091743,-9.44954128440367,,
1760476415.9657316,0,-0.60321044921875,0.12493896484375,0.12567138671875,9.427480916030534,-150.4732824427481,5.862595419847328,915.9633027522937,-32.56880733944954,-9.908256880733946,,
1760476415.9761372,0,-0.60302734375,0.1248779296875,0.12567138671875,9.404580152671755,-170.01526717557252,-25.412213740458014,1009.908256880734,-33.11926605504587,-9.357798165137615,,
1760476416.0073712,0,-0.6029052734375,0.1248779296875,0.12548828125,9.419847328244275,-119.20610687022901,-44.954198473282446,422.7522935779817,-33.39449541284404,-9.81651376146789,,
1760476416.0177848,0,-0.60272216796875,0.12493896484375,0.12567138671875,9.412213740458014,-150.4732824427481,-58.63358778625954,610.6422018348624,-32.93577981651376,-9.81651376146789,,
1760476416.0384502,0,-0.60260009765625,0.12493896484375,0.125732421875,9.404580152671755,-164.15267175572518,-89.90076335877863,352.2935779816514,-33.02752293577982,-9.724770642201836,,
1760476416.0693378,0,-0.6024169921875,0.12493896484375,0.12567138671875,9.427480916030534,-162.19847328244273,-68.40458015267176,822.0183486238533,-32.477064220183486,-9.81651376146789,,
1760476416.1003032,0,-0.602294921875,0.12548828125,0.125244140625,9.427480916030534,-148.51908396946564,-33.229007633587784,1643.9449541284403,-32.6605504587156,-10.0,,
1760476416.110656,0,-0.60211181640625,0.124755859375,0.12579345703125,9.419847328244275,-140.70229007633588,-23.458015267175572,-2724.4954128440368,-33.30275229357798,-9.357798165137615,,
1760476416.1312158,0,-0.60198974609375,0.12469482421875,0.1258544921875,9.419847328244275,-146.5648854961832,-52.770992366412216,-963.0275229357798,-33.02752293577982,-9.63302752293578,,
1760476416.1416087,0,-0.601806640625,0.1253662109375,0.12518310546875,9.412213740458014,-173.9236641221374,-39.091603053435115,1690.9174311926606,-32.84403669724771,-9.724770642201836,,
1760476416.1726112,0,-0.6016845703125,0.12493896484375,0.125732421875,9.404580152671755,-119.20610687022901,-15.641221374045802,1197.7064220183486,-33.30275229357798,-9.724770642201836,,
1760476416.183047,0,-0.60150146484375,0.12518310546875,0.1253662109375,9.435114503816793,-140.70229007633588,-44.954198473282446,-2489.6330275229357,-32.93577981651376,-9.357798165137615,,
1760476416.193438,0,-0.60137939453125,0.12420654296875,0.126220703125,9.427480916030534,-144.61068702290078,-68.40458015267176,587.0642201834863,-32.93577981651376,-9.81651376146789,,
1760476416.2037942,0,-0.6011962890625,0.1248779296875,0.1256103515625,9.419847328244275,-138.74809160305344,-33.229007633587784,117.43119266055047,-33.02752293577982,-10.18348623853211,,
1760476416.2353842,0,-0.60107421875,0.12506103515625,0.12548828125,9.404580152671755,-162.19847328244273,-31.27480916030534,798.5321100917431,-33.94495412844037,-9.63302752293578,,
1760476416.2662847,0,-0.60089111328125,0.12493896484375,0.12579345703125,9.427480916030534,-158.29007633587787,-25.412213740458014,540.1834862385322,-33.11926605504587,-9.174311926605505,,
1760476416.276628,0,-0.60076904296875,0.12481689453125,0.125732421875,9.412213740458014,-158.29007633587787,-39.091603053435115,681.1009174311927,-33.211009174311926,-9.908256880733946,,
1760476416.297516,0,-0.6005859375,0.1265869140625,0.128662109375,9.435114503816793,-166.10687022900763,-3.9160305343511452,1526.605504587156,-32.56880733944954,-9.44954128440367,,
1760476416.3080251,0,-0.6004638671875,0.1258544921875,0.1268310546875,9.427480916030534,-130.93129770992365,125.06870229007633,187.9816513761468,-33.11926605504587,-9.541284403669724,,
1760476416.3288813,0,-0.60028076171875,0.12445068359375,0.12518310546875,9.404580152671755,50.81679389312977,76.21374045801527,-2090.183486238532,-33.57798165137615,-9.174311926605505,,
1760476416.3603106,0,-0.60015869140625,0.1241455078125,0.12469482421875,9.427480916030534,-136.793893129771,187.6030534351145,-1526.4220183486239,-33.48623853211009,-9.81651376146789,,
1760476416.3709507,0,-0.5999755859375,0.1241455078125,0.12493896484375,9.435114503816793,164.15267175572518,160.23664122137404,-493.2110091743119,-33.11926605504587,-9.908256880733946,,
1760476416.3922594,0,-0.599853515625,0.1243896484375,0.12493896484375,9.412213740458014,-138.74809160305344,-7.824427480916031,422.7522935779817,-33.11926605504587,-9.724770642201836,,
1760476416.4240282,0,-0.59967041015625,0.12493896484375,0.12548828125,9.435114503816793,-171.96946564885496,-25.412213740458014,634.1284403669725,-32.38532110091743,-9.908256880733946,,
1760476416.4347095,0,-0.59954833984375,0.12493896484375,0.12554931640625,9.435114503816793,-171.96946564885496,-44.954198473282446,892.4770642201836,-33.11926605504587,-9.541284403669724,,
1760476416.4561214,0,-0.599365234375,0.12493896484375,0.1256103515625,9.419847328244275,-154.38167938931298,-66.45038167938931,775.045871559633,-32.84403669724771,-9.63302752293578,,
1760476416.4668107,0,-0.5992431640625,0.1248779296875,0.12548828125,9.427480916030534,-136.793893129771,-27.366412213740457,681.1009174311927,-33.39449541284404,-9.908256880733946,,
1760476416.4880567,0,-0.59906005859375,0.12481689453125,0.12554931640625,9.412213740458014,-158.29007633587787,-9.778625954198473,775.045871559633,-33.211009174311926,-9.357798165137615,,
1760476416.5196157,0,-0.59893798828125,0.1248779296875,0.1256103515625,9.427480916030534,-154.38167938931298,-25.412213740458014,681.1009174311927,-32.56880733944954,-10.275229357798166,,
1760476416.5303957,0,-0.5987548828125,0.12493896484375,0.12567138671875,9.412213740458014,-136.793893129771,3.9083969465648853,657.6146788990826,-32.38532110091743,-9.44954128440367,,
1760476416.551541,0,-0.5986328125,0.12493896484375,0.1256103515625,9.427480916030534,-146.5648854961832,-5.870229007633588,399.26605504587155,-33.211009174311926,-9.63302752293578,,
1760476416.5726378,0,-0.59844970703125,0.12481689453125,0.12567138671875,9.419847328244275,-125.06870229007633,-43.0,587.1559633027523,-32.84403669724771,-9.44954128440367,,
1760476416.5835025,0,-0.59832763671875,0.12481689453125,0.12579345703125,9.419847328244275,-123.1145038167939,-9.778625954198473,540.1834862385322,-33.211009174311926,-9.44954128440367,,
1760476416.6155138,0,-0.59814453125,0.12493896484375,0.1256103515625,9.427480916030534,-140.70229007633588,-7.824427480916031,610.6422018348624,-33.39449541284404,-9.724770642201836,,
1760476416.6262717,0,-0.5980224609375,0.1248779296875,0.1256103515625,9.396946564885496,-152.42748091603053,-17.595419847328245,704.5871559633028,-32.93577981651376,-9.541284403669724,,
1760476416.6476362,0,-0.59783935546875,0.12493896484375,0.1256103515625,9.419847328244275,-136.793893129771,-50.81679389312977,822.0183486238533,-32.93577981651376,-8.89908256880734,,
1760476416.669298,0,-0.59771728515625,0.125,0.12554931640625,9.435114503816793,-140.70229007633588,-33.229007633587784,775.045871559633,-32.56880733944954,-9.541284403669724,,
1760476416.680043,0,-0.5975341796875,0.1248779296875,0.1256103515625,9.427480916030534,-115.29770992366412,-33.229007633587784,939.4495412844037,-32.93577981651376,-9.908256880733946,,
1760476416.701491,0,-0.597412109375,0.12493896484375,0.1256103515625,9.435114503816793,-121.16030534351145,0.0,892.4770642201836,-33.30275229357798,-9.26605504587156,,
1760476416.733491,0,-0.59722900390625,0.1248779296875,0.12554931640625,9.419847328244275,-144.61068702290078,-5.870229007633588,939.4495412844037,-32.84403669724771,-9.541284403669724,,
1760476416.7442057,0,-0.59710693359375,0.12493896484375,0.12548828125,9.419847328244275,-158.29007633587787,-46.908396946564885,1150.8256880733945,-33.76146788990826,-10.0,,
1760476416.765546,0,-0.596923828125,0.1248779296875,0.126220703125,9.435114503816793,-136.793893129771,-11.732824427480915,563.6697247706422,-32.20183486238532,-9.63302752293578,,
1760476416.7763162,0,-0.5968017578125,0.125,0.12554931640625,9.419847328244275,-144.61068702290078,-21.50381679389313,540.1834862385322,-32.93577981651376,-10.0,,
1760476416.7978132,0,-0.59661865234375,0.1248779296875,0.12567138671875,9.427480916030534,-154.38167938931298,-54.725190839694655,516.6972477064221,-33.57798165137615,-9.63302752293578,,
1760476416.8296225,0,-0.59649658203125,0.12493896484375,0.1256103515625,9.427480916030534,-142.65648854961833,-48.86259541984733,962.9357798165138,-33.48623853211009,-9.63302752293578,,
1760476416.8403463,0,-0.5963134765625,0.12493896484375,0.12237548828125,9.419847328244275,-150.4732824427481,68.3969465648855,-2700.917431192661,-32.6605504587156,-9.541284403669724,,
1760476416.861631,0,-0.59619140625,0.12506103515625,0.12652587890625,9.427480916030534,-136.793893129771,-76.22137404580153,1972.8440366972477,-32.84403669724771,-9.724770642201836,,
1760476416.8933434,0,-0.59600830078125,0.1251220703125,0.12506103515625,9.412213740458014,-177.8320610687023,-52.770992366412216,2982.7522935779816,-32.75229357798165,-10.18348623853211,,
1760476416.9042447,0,-0.59588623046875,0.12481689453125,0.12451171875,9.412213740458014,-142.64885496183206,211.06106870229007,2653.4862385321103,-33.02752293577982,-9.44954128440367,,
1760476416.9256232,0,-0.595703125,0.12567138671875,0.1243896484375,9.419847328244275,154.38167938931298,97.70229007633588,680.0917431192661,-32.93577981651376,-10.091743119266056,,
1760476416.9364219,0,-0.5955810546875,0.12652587890625,0.12481689453125,9.396946564885496,213.00763358778627,103.57251908396947,1078.8990825688072,-32.6605504587156,-9.26605504587156,,
1760476416.9576395,0,-0.59539794921875,0.1240234375,0.1290283203125,9.358778625954198,-168.06106870229007,-11.740458015267176,-2420.183486238532,-33.6697247706422,-8.990825688073395,,
1760476416.9893346,0,-0.59527587890625,0.125732421875,0.12481689453125,9.427480916030534,-183.6946564885496,78.1526717557252,-471.0091743119266,-33.6697247706422,-8.807339449541285,,
1760476417.000052,0,-0.5950927734375,0.12603759765625,0.124755859375,9.450381679389313,-207.13740458015266,97.69465648854961,2417.4311926605506,-34.67889908256881,-8.89908256880734,,
1760476417.0213878,0,-0.594970703125,0.12457275390625,0.1240234375,9.366412213740459,-218.8854961832061,-119.22900763358778,-1293.7614678899083,-34.22018348623853,-8.715596330275229,,
1760476417.0320997,0,-0.59478759765625,0.123291015625,0.124267578125,9.389312977099237,-226.70992366412213,-60.62595419847328,1853.119266055046,-33.48623853211009,-8.715596330275229,,
1760476417.053392,0,-0.59466552734375,0.1214599609375,0.12481689453125,9.34351145038168,72.30534351145039,-168.1145038167939,-2445.045871559633,-35.137614678899084,-8.256880733944955,,
1760476417.085137,0,-0.594482421875,0.1212158203125,0.1282958984375,9.312977099236642,-62.534351145038165,-162.26717557251908,-1434.2201834862385,-35.321100917431195,-7.155963302752294,,
1760476417.0958424,0,-0.5943603515625,0.1219482421875,0.1279296875,9.099236641221374,-209.15267175572518,-1.9694656488549618,1737.3394495412842,-35.41284403669725,-7.064220183486239,,
1760476417.1170347,0,-0.59417724609375,0.12152099609375,0.1270751953125,9.282442748091603,-215.0229007633588,-9.786259541984732,-1104.2201834862385,-35.41284403669725,-6.238532110091743,,
1760476417.1277685,0,-0.59405517578125,0.12176513671875,0.12982177734375,9.267175572519085,-19.587786259541986,58.61068702290076,1620.8256880733945,-35.321100917431195,-6.7889908256880735,,
1760476417.1490705,0,-0.5938720703125,0.12408447265625,0.12890625,9.610687022900763,-220.87786259541986,72.29007633587786,963.6697247706422,-35.04587155963303,-6.697247706422019,,
1760476417.1810265,0,-0.59375,0.122802734375,0.1279296875,9.48091603053435,-17.610687022900763,-170.04580152671755,-375.3211009174312,-34.403669724770644,-6.697247706422019,,
1760476417.191727,0,-0.59356689453125,0.12225341796875,0.12884521484375,9.236641221374045,93.82442748091603,179.74809160305344,2865.6880733944954,-34.4954128440367,-6.055045871559633,,
1760476417.2129788,0,-0.59344482421875,0.1226806640625,0.1285400390625,9.358778625954198,-158.25954198473283,-246.26717557251908,-2982.3853211009177,-34.95412844036697,-6.513761467889909,,
1760476417.2446165,0,-0.59326171875,0.1220703125,0.1273193359375,9.557251908396946,-177.80152671755727,-84.06870229007633,-1056.605504587156,-34.22018348623853,-6.8807339449541285,,
1760476417.2553294,0,-0.5931396484375,0.12158203125,0.12640380859375,9.541984732824428,-158.26717557251908,68.36641221374046,1127.7064220183486,-33.76146788990826,-6.8807339449541285,,
1760476417.2765458,0,-0.59295654296875,0.12109375,0.12591552734375,9.564885496183207,78.19847328244275,152.3969465648855,-1103.5779816513761,-33.48623853211009,-7.339449541284404,,
1760476417.2873218,0,-0.59283447265625,0.12109375,0.12603759765625,9.633587786259541,136.82442748091603,-115.32824427480917,-2653.669724770642,-33.85321100917431,-7.614678899082569,,
1760476417.308549,0,-0.5926513671875,0.120849609375,0.12603759765625,9.65648854961832,64.52671755725191,-43.02290076335878,1691.2844036697247,-33.211009174311926,-6.697247706422019,,
1760476417.340206,0,-0.592529296875,0.12109375,0.12615966796875,9.648854961832061,-5.816793893129771,56.64885496183206,-2559.816513761468,-33.39449541284404,-7.614678899082569,,
1760476417.3508713,0,-0.59234619140625,0.1199951171875,0.12420654296875,9.587786259541986,-130.87786259541986,-54.74809160305343,-2348.623853211009,-33.02752293577982,-6.972477064220184,,
1760476417.372158,0,-0.59222412109375,0.120849609375,0.125244140625,9.465648854961833,-3.8625954198473282,62.50381679389313,1855.3211009174313,-33.30275229357798,-7.431192660550459,,
1760476417.4039085,0,-0.592041015625,0.1204833984375,0.125244140625,9.48091603053435,-228.59541984732823,148.4885496183206,2512.8440366972477,-32.29357798165138,-7.79816513761468,,
1760476417.414564,0,-0.5919189453125,0.1204833984375,0.125244140625,9.435114503816793,-152.3740458015267,-86.02290076335878,-2724.587155963303,-32.01834862385321,-7.79816513761468,,
1760476417.436005,0,-0.59173583984375,0.11956787109375,0.12359619140625,9.50381679389313,-214.91603053435114,-29.35114503816794,1408.9908256880735,-33.11926605504587,-8.1651376146789,,
1760476417.467762,0,-0.59161376953125,0.11962890625,0.123779296875,9.48091603053435,-1.9083969465648856,99.63358778625954,563.4862385321102,-32.84403669724771,-7.889908256880735,,
1760476417.4785,0,-0.5914306640625,0.11920166015625,0.12359619140625,9.526717557251908,209.14503816793894,226.66412213740458,751.559633027523,-33.30275229357798,-8.440366972477065,,
1760476417.499862,0,-0.59130859375,0.11968994140625,0.12274169921875,9.67175572519084,230.61068702290078,21.49618320610687,-1221.2844036697247,-32.477064220183486,-8.53211009174312,,
1760476417.51053,0,-0.59112548828125,0.11895751953125,0.12213134765625,9.65648854961832,-168.06106870229007,183.70229007633588,-1033.3944954128442,-32.477064220183486,-8.715596330275229,,
1760476417.5319438,0,-0.59100341796875,0.11962890625,0.12286376953125,9.564885496183207,-224.74045801526717,54.732824427480914,-1503.119266055046,-33.02752293577982,-8.623853211009175,,
1760476417.5426025,0,-0.5908203125,0.11956787109375,0.12298583984375,9.595419847328245,107.4885496183206,205.206106870229,845.5963302752293,-32.56880733944954,-8.34862385321101,,
1760476417.5640862,0,-0.5906982421875,0.11968994140625,0.12310791015625,9.541984732824428,218.87786259541986,29.33587786259542,2771.467889908257,-33.39449541284404,-8.440366972477065,,
1760476417.5958357,0,-0.59051513671875,0.12030029296875,0.12322998046875,9.534351145038167,211.04580152671755,-205.16030534351145,-140.8256880733945,-32.38532110091743,-8.715596330275229,,
1760476417.6065316,0,-0.59039306640625,0.120361328125,0.1226806640625,9.648854961832061,70.34351145038168,99.70229007633588,634.4036697247707,-33.02752293577982,-8.807339449541285,,
1760476417.6277559,0,-0.5902099609375,0.12066650390625,0.12335205078125,9.549618320610687,19.53435114503817,166.15267175572518,-1009.7247706422019,-32.75229357798165,-8.715596330275229,,
1760476417.63837,0,-0.590087890625,0.12109375,0.12322998046875,9.541984732824428,-150.49618320610688,-40.99236641221374,2865.5963302752293,-32.84403669724771,-8.715596330275229,,
1760476417.6594176,0,-0.58990478515625,0.12115478515625,0.12310791015625,9.488549618320612,-46.93129770992366,-248.12977099236642,1926.1467889908256,-33.11926605504587,-8.89908256880734,,
1760476417.6911764,0,-0.58978271484375,0.121826171875,0.123779296875,9.419847328244275,-121.19847328244275,-121.10687022900764,-2724.1284403669724,-34.12844036697248,-8.256880733944955,,
1760476417.7019477,0,-0.589599609375,0.1202392578125,0.1251220703125,8.740458015267176,199.35114503816794,-50.778625954198475,258.5321100917431,-34.12844036697248,-8.623853211009175,,
1760476417.7233367,0,-0.5894775390625,0.12176513671875,0.12420654296875,8.687022900763358,-140.6793893129771,-146.54961832061068,986.605504587156,-33.94495412844037,-8.623853211009175,,
1760476417.7552083,0,-0.58929443359375,0.123046875,0.124755859375,9.282442748091603,-101.63358778625954,-111.3969465648855,-2277.8899082568805,-33.94495412844037,-8.990825688073395,,
1760476417.7659817,0,-0.58917236328125,0.12237548828125,0.1239013671875,9.412213740458014,-181.74809160305344,246.22137404580153,-751.2844036697247,-33.85321100917431,-8.715596330275229,,
1760476417.787446,0,-0.5889892578125,0.12249755859375,0.1234130859375,9.320610687022901,234.49618320610688,187.59541984732823,-2512.8440366972477,-34.403669724770644,-8.440366972477065,,
1760476417.7982123,0,-0.5888671875,0.12188720703125,0.12506103515625,9.01526717557252,-101.6412213740458,46.87786259541985,-2254.4954128440368,-34.12844036697248,-8.623853211009175,,
1760476417.8090289,0,-0.58868408203125,0.12115478515625,0.12457275390625,8.84732824427481,175.85496183206106,85.94656488549619,-1972.6605504587155,-33.30275229357798,-8.623853211009175,,
1760476417.8410175,0,-0.58856201171875,0.121337890625,0.12530517578125,9.01526717557252,-177.85496183206106,31.221374045801525,329.08256880733944,-33.02752293577982,-9.08256880733945,,
1760476417.8518672,0,-0.58837890625,0.12237548828125,0.12493896484375,9.32824427480916,-109.46564885496183,-95.80916030534351,-493.02752293577987,-32.84403669724771,-8.440366972477065,,
1760476417.8732786,0,-0.5882568359375,0.12103271484375,0.12469482421875,9.717557251908397,-121.18320610687023,212.9618320610687,657.8899082568807,-33.02752293577982,-8.623853211009175,,
1760476417.9050913,0,-0.58807373046875,0.1219482421875,0.124755859375,10.030534351145038,-216.93893129770993,-193.49618320610688,634.4036697247707,-32.29357798165138,-8.440366972477065,,
1760476417.9158762,0,-0.58795166015625,0.1212158203125,0.1253662109375,9.969465648854962,-240.38167938931298,-105.54198473282443,2161.1009174311926,-32.477064220183486,-8.073394495412845,,
1760476417.9372659,0,-0.5877685546875,0.11968994140625,0.124267578125,9.755725190839694,-205.19847328244273,-134.84732824427482,-1103.394495412844,-31.743119266055047,-8.1651376146789,,
1760476417.9690895,0,-0.587646484375,0.120849609375,0.12567138671875,9.816793893129772,-191.5114503816794,72.30534351145039,-93.39449541284404,-31.28440366972477,-8.53211009174312,,
1760476417.9799168,0,-0.58746337890625,0.1219482421875,0.12646484375,9.748091603053435,199.31297709923663,-62.52671755725191,2960.0,-31.8348623853211,-8.89908256880734,,
1760476418.0013807,0,-0.58734130859375,0.12249755859375,0.12530517578125,9.587786259541986,-129.0,86.00763358778626,2231.8348623853212,-32.56880733944954,-8.715596330275229,,
1760476418.0333872,0,-0.587158203125,0.12127685546875,0.1259765625,9.557251908396946,-127.04580152671755,-5.8396946564885495,1785.4128440366974,-31.926605504587158,-9.08256880733945,,
1760476418.0441687,0,-0.5870361328125,0.1214599609375,0.1265869140625,9.488549618320612,-27.374045801526716,-207.12213740458014,2677.8899082568805,-32.20183486238532,-8.53211009174312,,
1760476418.0552328,0,-0.58685302734375,0.12158203125,0.12646484375,9.557251908396946,185.63358778625954,183.72519083969465,-1009.4495412844036,-31.376146788990827,-9.174311926605505,,
1760476418.087126,0,-0.58673095703125,0.1217041015625,0.1260986328125,9.450381679389313,-56.69465648854962,-187.57251908396947,-3005.6880733944954,-32.20183486238532,-8.990825688073395,,
1760476418.0979128,0,-0.5865478515625,0.12152099609375,0.1268310546875,9.244274809160306,-121.19083969465649,-173.90076335877862,-2301.1009174311926,-31.8348623853211,-8.89908256880734,,
1760476418.119167,0,-0.58642578125,0.12066650390625,0.12738037109375,8.816793893129772,-105.53435114503817,232.55725190839695,-281.2844036697248,-32.6605504587156,-8.715596330275229,,
1760476418.1300297,0,-0.58624267578125,0.12322998046875,0.1279296875,9.198473282442748,64.5114503816794,113.34351145038168,-774.8623853211009,-32.38532110091743,-8.807339449541285,,
1760476418.1514413,0,-0.58612060546875,0.1231689453125,0.127685546875,9.534351145038167,21.49618320610687,-142.65648854961833,-2324.770642201835,-32.29357798165138,-9.908256880733946,,
1760476418.1623163,0,-0.5859375,0.122314453125,0.12652587890625,9.458015267175572,23.46564885496183,-1.9618320610687023,1738.2568807339449,-31.46788990825688,-9.174311926605505,,
1760476418.194307,0,-0.5858154296875,0.1224365234375,0.12713623046875,9.435114503816793,209.12213740458014,-132.90076335877862,-1667.2477064220182,-32.20183486238532,-9.08256880733945,,
1760476418.2050207,0,-0.58563232421875,0.122314453125,0.1268310546875,9.419847328244275,-212.98473282442748,238.3969465648855,1808.7155963302753,-31.19266055045872,-9.44954128440367,,
1760476418.2264388,0,-0.58551025390625,0.122802734375,0.127197265625,9.473282442748092,168.0916030534351,-201.3053435114504,-962.6605504587155,-31.743119266055047,-9.541284403669724,,
1760476418.2584343,0,-0.5853271484375,0.12225341796875,0.1265869140625,9.458015267175572,-232.51908396946564,46.87786259541985,2677.798165137615,-31.55963302752294,-9.724770642201836,,
1760476418.2692003,0,-0.585205078125,0.12188720703125,0.12548828125,9.389312977099237,-70.3206106870229,209.10687022900763,-962.6605504587155,-31.55963302752294,-9.44954128440367,,
1760476418.290593,0,-0.58502197265625,0.12213134765625,0.12646484375,9.412213740458014,-46.88549618320611,-5.854961832061068,1550.4587155963304,-31.10091743119266,-9.26605504587156,,
1760476418.3227446,0,-0.58489990234375,0.12249755859375,0.12579345703125,9.427480916030534,-144.59541984732823,39.099236641221374,1338.9908256880733,-31.28440366972477,-10.458715596330276,,
1760476418.3334796,0,-0.584716796875,0.12322998046875,0.12530517578125,9.488549618320612,-218.84732824427482,-82.06106870229007,681.3761467889908,-30.550458715596328,-10.18348623853211,,
1760476418.3549442,0,-0.5845947265625,0.1221923828125,0.12518310546875,9.442748091603054,199.3587786259542,213.03053435114504,-704.4036697247706,-31.46788990825688,-9.908256880733946,,
1760476418.3657262,0,-0.58441162109375,0.12347412109375,0.1246337890625,9.312977099236642,-134.8320610687023,95.77862595419847,-986.0550458715597,-31.19266055045872,-9.908256880733946,,
1760476418.3870637,0,-0.58428955078125,0.12286376953125,0.12420654296875,9.351145038167939,31.290076335877863,246.25190839694656,1973.119266055046,-32.11009174311927,-10.18348623853211,,
1760476418.39785,0,-0.5841064453125,0.1229248046875,0.12530517578125,9.465648854961833,238.44274809160305,-152.38931297709922,-2958.8990825688074,-31.28440366972477,-10.366972477064222,,
1760476418.4192533,0,-0.583984375,0.12371826171875,0.12445068359375,9.488549618320612,35.213740458015266,230.64885496183206,1620.9174311926606,-31.19266055045872,-10.642201834862385,,
1760476418.4510868,0,-0.58380126953125,0.1240234375,0.123779296875,9.213740458015268,201.31297709923663,-80.08396946564885,1761.7431192660551,-31.28440366972477,-11.009174311926607,,
1760476418.4619696,0,-0.58367919921875,0.12469482421875,0.123291015625,9.351145038167939,-68.38167938931298,1.984732824427481,-46.69724770642202,-31.46788990825688,-11.100917431192661,,
1760476418.4834204,0,-0.58349609375,0.124755859375,0.12457275390625,9.435114503816793,183.70992366412213,-41.030534351145036,963.119266055046,-31.8348623853211,-10.458715596330276,,
1760476418.515435,0,-0.5833740234375,0.1248779296875,0.1229248046875,9.389312977099237,-240.3740458015267,42.99236641221374,1973.119266055046,-31.743119266055047,-10.642201834862385,,
1760476418.547335,0,-0.58319091796875,0.12445068359375,0.12371826171875,9.435114503816793,50.80152671755725,37.12977099236641,1949.1743119266055,-31.28440366972477,-10.733944954128441,,
1760476418.5580988,0,-0.58306884765625,0.120361328125,0.121826171875,9.412213740458014,74.25190839694656,117.25190839694656,821.6513761467891,-31.743119266055047,-10.458715596330276,,
1760476418.5688899,0,-0.5828857421875,0.12017822265625,0.1190185546875,9.49618320610687,128.9618320610687,-148.53435114503816,233.76146788990826,-32.01834862385321,-10.825688073394495,,
1760476418.579767,0,-0.582763671875,0.12445068359375,0.12677001953125,9.038167938931299,203.26717557251908,164.06106870229007,2136.0550458715597,-32.38532110091743,-10.917431192660551,,
1760476418.5905204,0,-0.58258056640625,0.1251220703125,0.1234130859375,9.564885496183207,105.52671755725191,-136.8091603053435,-2373.3944954128438,-32.29357798165138,-10.091743119266056,,
1760476418.6120012,0,-0.58245849609375,0.1302490234375,0.1295166015625,9.374045801526718,-171.9618320610687,-222.78625954198472,-1480.7339449541284,-32.477064220183486,-10.458715596330276,,
1760476418.6439958,0,-0.582275390625,0.13201904296875,0.1324462890625,9.458015267175572,121.16030534351145,-226.6946564885496,70.45871559633028,-32.11009174311927,-9.81651376146789,,
1760476418.6548002,0,-0.5821533203125,0.12567138671875,0.12762451171875,9.404580152671755,-158.29007633587787,-76.22137404580153,-187.88990825688074,-32.477064220183486,-10.091743119266056,,
1760476418.6761112,0,-0.58197021484375,0.125,0.12445068359375,9.435114503816793,-173.9236641221374,-99.67175572519083,-2560.0,-32.29357798165138,-10.0,,
1760476418.7079916,0,-0.58184814453125,0.125244140625,0.1239013671875,9.435114503816793,-41.038167938931295,-226.68702290076337,-2935.229357798165,-31.926605504587158,-9.81651376146789,,
1760476418.7186744,0,-0.5816650390625,0.1241455078125,0.1278076171875,9.435114503816793,-111.38931297709924,39.083969465648856,2982.935779816514,-32.56880733944954,-10.733944954128441,,
1760476418.7400362,0,-0.58154296875,0.12506103515625,0.12652587890625,9.404580152671755,-173.9236641221374,-78.17557251908397,1784.9541284403672,-33.02752293577982,-10.091743119266056,,
1760476418.750834,0,-0.58135986328125,0.12493896484375,0.12384033203125,9.427480916030534,-101.61832061068702,140.70229007633588,-681.1009174311927,-32.38532110091743,-10.825688073394495,,
1760476418.7722425,0,-0.58123779296875,0.1248779296875,0.125732421875,9.412213740458014,-220.82442748091603,-62.541984732824424,-2348.7155963302753,-32.01834862385321,-10.366972477064222,,
1760476418.804133,0,-0.5810546875,0.1251220703125,0.12322998046875,9.427480916030534,-144.61068702290078,68.3969465648855,2207.6146788990827,-32.11009174311927,-10.091743119266056,,
1760476418.8149164,0,-0.5809326171875,0.125244140625,0.1248779296875,9.427480916030534,-48.85496183206107,109.43511450381679,-117.88990825688073,-32.38532110091743,-10.458715596330276,,
1760476418.8257132,0,-0.58074951171875,0.12493896484375,0.125,9.419847328244275,-183.6946564885496,-103.58015267175573,-258.7155963302752,-32.6605504587156,-10.18348623853211,,
1760476418.8575115,0,-0.58062744140625,0.12481689453125,0.12542724609375,9.427480916030534,-179.78625954198472,-183.70229007633588,-446.60550458715596,-32.75229357798165,-9.81651376146789,,
1760476418.8894768,0,-0.5804443359375,0.12469482421875,0.12615966796875,9.412213740458014,-64.4885496183206,56.67175572519084,-1292.1100917431193,-32.01834862385321,-10.18348623853211,,
1760476418.9002595,0,-0.580322265625,0.1251220703125,0.12542724609375,9.435114503816793,-168.06106870229007,-119.21374045801527,1902.2018348623853,-32.56880733944954,-9.357798165137615,,
1760476418.9215395,0,-0.58013916015625,0.12518310546875,0.1263427734375,9.419847328244275,-46.900763358778626,39.083969465648856,868.8073394495414,-32.20183486238532,-10.642201834862385,,
1760476418.9323018,0,-0.58001708984375,0.12493896484375,0.12640380859375,9.412213740458014,-123.1145038167939,0.0,-2630.550458715596,-32.6605504587156,-9.724770642201836,,
1760476418.9535654,0,-0.579833984375,0.12493896484375,0.12554931640625,9.412213740458014,-117.25190839694656,-21.50381679389313,46.972477064220186,-32.477064220183486,-10.091743119266056,,
1760476418.9643526,0,-0.5797119140625,0.1248779296875,0.125732421875,9.412213740458014,-146.5648854961832,-56.6793893129771,234.86238532110093,-32.84403669724771,-10.0,,
1760476418.9857514,0,-0.57952880859375,0.12493896484375,0.1256103515625,9.419847328244275,-136.793893129771,-35.18320610687023,-117.52293577981652,-32.84403669724771,-10.275229357798166,,
1760476419.0176203,0,-0.57940673828125,0.12493896484375,0.12567138671875,9.419847328244275,-175.87786259541986,-43.0,-141.0091743119266,-32.477064220183486,-9.81651376146789,,
1760476419.0284646,0,-0.5792236328125,0.12493896484375,0.1256103515625,9.412213740458014,-134.83969465648855,-23.458015267175572,939.4495412844037,-32.84403669724771,-10.275229357798166,,
1760476419.0499985,0,-0.5791015625,0.1248779296875,0.1256103515625,9.435114503816793,-150.4732824427481,1.9541984732824427,469.72477064220186,-33.57798165137615,-9.541284403669724,,
1760476419.0819952,0,-0.57891845703125,0.12481689453125,0.12554931640625,9.412213740458014,-113.34351145038168,3.9083969465648853,281.8348623853211,-32.6605504587156,-9.81651376146789,,
1760476419.092767,0,-0.57879638671875,0.12493896484375,0.1256103515625,9.404580152671755,-128.9770992366412,21.49618320610687,704.5871559633028,-33.30275229357798,-10.0,,
1760476419.1141238,0,-0.57861328125,0.12493896484375,0.12554931640625,9.412213740458014,-121.16030534351145,-9.778625954198473,845.5045871559633,-32.477064220183486,-9.81651376146789,,
1760476419.1354525,0,-0.5784912109375,0.1248779296875,0.12554931640625,9.442748091603054,-152.42748091603053,-3.9160305343511452,962.9357798165138,-32.477064220183486,-10.275229357798166,,
1760476419.1463048,0,-0.57830810546875,0.125,0.12554931640625,9.396946564885496,-164.15267175572518,-31.27480916030534,610.6422018348624,-32.93577981651376,-9.81651376146789,,
1760476419.1676035,0,-0.57818603515625,0.12493896484375,0.125732421875,9.427480916030534,-175.87786259541986,-11.732824427480915,751.559633027523,-32.20183486238532,-10.825688073394495,,
1760476419.1783998,0,-0.5780029296875,0.12493896484375,0.125732421875,9.427480916030534,-150.4732824427481,-37.13740458015267,634.1284403669725,-32.75229357798165,-9.81651376146789,,
1760476419.1997318,0,-0.577880859375,0.12506103515625,0.12554931640625,9.419847328244275,-171.96946564885496,-39.091603053435115,587.1559633027523,-33.11926605504587,-9.63302752293578,,
1760476419.2315726,0,-0.57769775390625,0.125,0.12567138671875,9.419847328244275,-166.10687022900763,-33.229007633587784,1009.908256880734,-32.56880733944954,-9.908256880733946,,
1760476419.2423708,0,-0.57757568359375,0.12493896484375,0.12567138671875,9.419847328244275,-164.15267175572518,-31.27480916030534,305.3211009174312,-32.11009174311927,-9.81651376146789,,
1760476419.2638245,0,-0.577392578125,0.12506103515625,0.12554931640625,9.435114503816793,-119.20610687022901,-41.045801526717554,634.1284403669725,-33.11926605504587,-10.091743119266056,,
1760476419.2747307,0,-0.5772705078125,0.125,0.12542724609375,9.427480916030534,-173.9236641221374,-13.687022900763358,845.5045871559633,-32.6605504587156,-10.091743119266056,,
1760476419.3065858,0,-0.57708740234375,0.12493896484375,0.12548828125,9.404580152671755,-144.61068702290078,-56.6793893129771,493.2110091743119,-32.75229357798165,-10.366972477064222,,
1760476419.3276405,0,-0.57696533203125,0.125,0.12548828125,9.404580152671755,-138.74809160305344,-35.18320610687023,399.26605504587155,-32.477064220183486,-9.724770642201836,,
1760476419.3383875,0,-0.5767822265625,0.12493896484375,0.12567138671875,9.419847328244275,-136.793893129771,-41.045801526717554,681.1009174311927,-32.93577981651376,-9.724770642201836,,
1760476419.3597696,0,-0.57666015625,0.12493896484375,0.12554931640625,9.396946564885496,-166.10687022900763,-9.778625954198473,540.1834862385322,-32.38532110091743,-10.366972477064222,,
1760476419.3703287,0,-0.57647705078125,0.125,0.12542724609375,9.412213740458014,-181.74045801526717,-31.27480916030534,328.8073394495413,-32.38532110091743,-10.275229357798166,,
1760476419.3913462,0,-0.57635498046875,0.12469482421875,0.1240234375,9.404580152671755,-164.15267175572518,87.93893129770993,2865.137614678899,-33.02752293577982,-9.541284403669724,,
1760476419.4232826,0,-0.576171875,0.12457275390625,0.12530517578125,9.404580152671755,-138.74809160305344,-13.687022900763358,2559.816513761468,-32.93577981651376,-10.091743119266056,,
1760476419.4339957,0,-0.5760498046875,0.1251220703125,0.12591552734375,9.427480916030534,-148.51908396946564,-62.541984732824424,634.1284403669725,-32.75229357798165,-10.275229357798166,,
1760476419.4554045,0,-0.57586669921875,0.125,0.12542724609375,9.427480916030534,-179.78625954198472,-31.27480916030534,563.6697247706422,-33.39449541284404,-9.44954128440367,,
1760476419.487338,0,-0.57574462890625,0.124755859375,0.12445068359375,9.412213740458014,-171.96946564885496,-13.687022900763358,2348.532110091743,-32.38532110091743,-10.18348623853211,,
1760476419.5194778,0,-0.5755615234375,0.125,0.125732421875,9.419847328244275,-103.57251908396947,-33.229007633587784,915.8715596330275,-32.84403669724771,-10.366972477064222,,
1760476419.530302,0,-0.575439453125,0.12481689453125,0.125244140625,9.404580152671755,-138.74809160305344,-25.412213740458014,1667.4311926605506,-32.84403669724771,-9.63302752293578,,
1760476419.5518198,0,-0.57525634765625,0.1243896484375,0.1243896484375,9.435114503816793,-150.4732824427481,-171.9770992366412,-2560.183486238532,-32.75229357798165,-10.091743119266056,,
1760476419.5625277,0,-0.57513427734375,0.12457275390625,0.1253662109375,9.419847328244275,-85.98473282442748,95.7557251908397,-1597.4311926605506,-32.84403669724771,-9.81651376146789,,
1760476419.5839806,0,-0.574951171875,0.1258544921875,0.127685546875,9.427480916030534,-150.4732824427481,-226.6946564885496,1127.1559633027523,-32.84403669724771,-10.0,,
1760476419.5947754,0,-0.5748291015625,0.1256103515625,0.126708984375,9.435114503816793,-160.24427480916032,-85.99236641221374,0.0,-32.29357798165138,-10.0,,
1760476419.616102,0,-0.57464599609375,0.1248779296875,0.12445068359375,9.419847328244275,222.77862595419847,211.04580152671755,-1550.1834862385322,-33.48623853211009,-9.81651376146789,,
1760476419.6374617,0,-0.57452392578125,0.1243896484375,0.12353515625,9.427480916030534,-99.66412213740458,-56.6793893129771,-2161.0091743119265,-33.39449541284404,-10.091743119266056,,
1760476419.648261,0,-0.5743408203125,0.12603759765625,0.12713623046875,9.381679389312977,123.1145038167939,-246.24427480916032,2559.5412844036696,-33.11926605504587,-9.724770642201836,,
1760476419.6695175,0,-0.57421875,0.12518310546875,0.121826171875,9.48091603053435,-27.358778625954198,-27.366412213740457,-1034.4036697247707,-32.29357798165138,-10.18348623853211,,
1760476419.7015352,0,-0.57403564453125,0.1240234375,0.1234130859375,9.389312977099237,-177.8320610687023,-213.01526717557252,-1903.9449541284405,-32.6605504587156,-9.357798165137615,,
1760476419.7123287,0,-0.57391357421875,0.125732421875,0.12835693359375,9.389312977099237,72.29770992366412,29.297709923664122,398.07339449541286,-32.84403669724771,-9.44954128440367,,
1760476419.7337537,0,-0.57373046875,0.125,0.12786865234375,9.312977099236642,-134.8320610687023,84.0,2066.0550458715597,-33.85321100917431,-9.724770642201836,,
1760476419.7655592,0,-0.5736083984375,0.1248779296875,0.123046875,9.427480916030534,76.22137404580153,-158.32824427480915,3004.8623853211006,-33.48623853211009,-8.53211009174312,,
1760476419.7764168,0,-0.57342529296875,0.122802734375,0.12469482421875,9.381679389312977,244.29770992366412,-50.86259541984733,-1575.4128440366974,-34.12844036697248,-9.08256880733945,,
1760476419.7978923,0,-0.57330322265625,0.1229248046875,0.1234130859375,9.435114503816793,-203.22137404580153,-152.48091603053436,1712.5688073394497,-34.403669724770644,-8.1651376146789,,
1760476419.808612,0,-0.5731201171875,0.12109375,0.125,9.49618320610687,107.4885496183206,-121.19847328244275,749.6330275229358,-34.77064220183486,-8.807339449541285,,
1760476419.8300984,0,-0.572998046875,0.12200927734375,0.12420654296875,9.541984732824428,-246.25190839694656,211.03053435114504,-1222.9357798165138,-34.31192660550459,-7.9816513761467895,,
1760476419.8408935,0,-0.57281494140625,0.12164306640625,0.124755859375,9.473282442748092,-119.23664122137404,203.23664122137404,-2702.5688073394494,-34.862385321100916,-7.706422018348624,,
1760476419.8623028,0,-0.57269287109375,0.1190185546875,0.12530517578125,9.610687022900763,41.038167938931295,205.19847328244273,-1715.5963302752293,-36.14678899082569,-7.339449541284404,,
1760476419.894228,0,-0.572509765625,0.11712646484375,0.1248779296875,9.725190839694656,185.6946564885496,-203.18320610687022,-468.7155963302752,-35.59633027522936,-7.431192660550459,,
1760476419.9049678,0,-0.5723876953125,0.12579345703125,0.12530517578125,9.725190839694656,248.21374045801528,86.12213740458016,-2417.1559633027523,-35.5045871559633,-7.522935779816514,,
1760476419.926374,0,-0.57220458984375,0.13348388671875,0.13067626953125,9.51908396946565,-101.58778625954199,-111.47328244274809,1667.1559633027523,-34.77064220183486,-7.889908256880735,,
1760476419.9584134,0,-0.57208251953125,0.1270751953125,0.12860107421875,9.404580152671755,-35.17557251908397,-54.725190839694655,-2326.146788990826,-35.59633027522936,-8.807339449541285,,
1760476419.969191,0,-0.5718994140625,0.12451171875,0.12689208984375,9.458015267175572,25.412213740458014,177.82442748091603,163.85321100917432,-36.14678899082569,-7.889908256880735,,
1760476419.9905782,0,-0.57177734375,0.1251220703125,0.12628173828125,9.389312977099237,-119.20610687022901,84.03053435114504,2089.908256880734,-35.5045871559633,-7.614678899082569,,
1760476420.0013769,0,-0.57159423828125,0.12469482421875,0.1260986328125,9.366412213740459,228.6412213740458,-5.870229007633588,1361.926605504587,-36.3302752293578,-7.706422018348624,,
1760476420.0228572,0,-0.57147216796875,0.124755859375,0.1253662109375,9.442748091603054,-236.45801526717557,-248.1908396946565,1408.9908256880735,-35.87155963302752,-7.614678899082569,,
1760476420.0547824,0,-0.5712890625,0.124267578125,0.1260986328125,9.427480916030534,-115.29770992366412,-132.90076335877862,-869.0825688073394,-36.23853211009174,-7.79816513761468,,
1760476420.0654888,0,-0.5711669921875,0.1246337890625,0.1253662109375,9.412213740458014,-175.87786259541986,-85.99236641221374,-211.4678899082569,-36.3302752293578,-7.247706422018349,,
1760476420.086914,0,-0.57098388671875,0.12469482421875,0.1253662109375,9.419847328244275,-177.8320610687023,-68.40458015267176,23.486238532110093,-36.42201834862385,-7.339449541284404,,
1760476420.0976975,0,-0.57086181640625,0.1246337890625,0.12530517578125,9.419847328244275,-170.01526717557252,-70.3587786259542,610.6422018348624,-35.77981651376147,-8.1651376146789,,
1760476420.1190448,0,-0.5706787109375,0.124755859375,0.1253662109375,9.427480916030534,-146.5648854961832,-56.6793893129771,798.5321100917431,-35.77981651376147,-8.1651376146789,,
1760476420.151042,0,-0.570556640625,0.1248779296875,0.12530517578125,9.419847328244275,-146.5648854961832,-17.595419847328245,2019.816513761468,-36.14678899082569,-7.614678899082569,,
1760476420.161866,0,-0.57037353515625,0.12451171875,0.12548828125,9.419847328244275,-97.70992366412214,60.58015267175573,-375.7798165137615,-35.68807339449541,-7.79816513761468,,
1760476420.1832407,0,-0.57025146484375,0.1246337890625,0.12542724609375,9.427480916030534,-74.25954198473282,54.717557251908396,-657.6146788990826,-36.14678899082569,-7.889908256880735,,
1760476420.1939878,0,-0.570068359375,0.124755859375,0.12542724609375,9.419847328244275,-93.80152671755725,87.93893129770993,-634.1284403669725,-35.87155963302752,-7.889908256880735,,
1760476420.215417,0,-0.5699462890625,0.12457275390625,0.12542724609375,9.427480916030534,-76.21374045801527,130.93129770992365,-1784.9541284403672,-35.77981651376147,-7.79816513761468,,
1760476420.247398,0,-0.56976318359375,0.124755859375,0.1253662109375,9.435114503816793,-74.25954198473282,150.4732824427481,2043.3027522935781,-35.321100917431195,-8.440366972477065,,
1760476420.2581787,0,-0.56964111328125,0.124755859375,0.12542724609375,9.427480916030534,-152.42748091603053,9.770992366412214,939.4495412844037,-36.3302752293578,-8.073394495412845,,
1760476420.2795196,0,-0.5694580078125,0.124755859375,0.12542724609375,9.419847328244275,-142.65648854961833,-27.366412213740457,1150.8256880733945,-36.3302752293578,-7.431192660550459,,
1760476420.3111475,0,-0.5693359375,0.12457275390625,0.1268310546875,9.412213740458014,-132.8854961832061,-95.76335877862596,-70.09174311926606,-35.59633027522936,-7.614678899082569,,
1760476420.3216014,0,-0.56915283203125,0.12469482421875,0.125,9.419847328244275,-162.19847328244273,-68.40458015267176,1104.1284403669724,-36.23853211009174,-8.073394495412845,,
1760476420.342867,0,-0.56903076171875,0.124755859375,0.12518310546875,9.435114503816793,-162.19847328244273,-54.725190839694655,-1596.880733944954,-35.5045871559633,-8.256880733944955,,
1760476420.3535862,0,-0.56884765625,0.124755859375,0.124755859375,9.419847328244275,-203.23664122137404,-5.870229007633588,516.7889908256881,-35.87155963302752,-7.889908256880735,,
1760476420.3750136,0,-0.5687255859375,0.12469482421875,0.1263427734375,9.412213740458014,-164.15267175572518,-44.954198473282446,-422.66055045871565,-35.41284403669725,-7.431192660550459,,
1760476420.4070094,0,-0.56854248046875,0.12469482421875,0.12518310546875,9.427480916030534,-197.3740458015267,-3.9160305343511452,1832.1100917431193,-35.5045871559633,-8.256880733944955,,
1760476420.4178693,0,-0.56842041015625,0.1248779296875,0.1246337890625,9.412213740458014,-125.06870229007633,-7.824427480916031,281.8348623853211,-35.87155963302752,-8.1651376146789,,
1760476420.4393084,0,-0.5682373046875,0.12469482421875,0.1259765625,9.427480916030534,-136.793893129771,-46.908396946564885,-1150.9174311926606,-35.77981651376147,-7.9816513761467895,,
1760476420.4712417,0,-0.568115234375,0.12371826171875,0.12890625,9.442748091603054,-74.25954198473282,185.64885496183206,-1385.5045871559635,-35.5045871559633,-8.34862385321101,,
1760476420.481965,0,-0.56793212890625,0.1248779296875,0.12457275390625,9.404580152671755,-127.02290076335878,-21.50381679389313,1409.3577981651376,-35.04587155963303,-8.53211009174312,,
1760476420.5033896,0,-0.56781005859375,0.12371826171875,0.12786865234375,9.458015267175572,-80.12213740458016,164.15267175572518,1150.7339449541284,-35.77981651376147,-8.256880733944955,,
1760476420.5141978,0,-0.567626953125,0.1248779296875,0.1253662109375,9.404580152671755,-183.6946564885496,60.58015267175573,-2935.7798165137615,-35.5045871559633,-7.889908256880735,,
1760476420.535542,0,-0.5675048828125,0.12432861328125,0.1265869140625,9.427480916030534,-72.30534351145039,-48.86259541984733,-1338.7155963302753,-36.23853211009174,-7.9816513761467895,,
1760476420.5674736,0,-0.56732177734375,0.125,0.1239013671875,9.419847328244275,-170.01526717557252,-128.98473282442748,-1315.321100917431,-36.055045871559635,-8.256880733944955,,
1760476420.5782347,0,-0.56719970703125,0.12481689453125,0.12548828125,9.419847328244275,-185.64885496183206,-11.732824427480915,845.5045871559633,-35.41284403669725,-8.073394495412845,,
1760476420.5996363,0,-0.5670166015625,0.1248779296875,0.1246337890625,9.412213740458014,-166.10687022900763,-25.412213740458014,-258.4403669724771,-35.41284403669725,-7.614678899082569,,
1760476420.6104288,0,-0.56689453125,0.125,0.1243896484375,9.419847328244275,-179.78625954198472,-11.732824427480915,-281.92660550458714,-35.68807339449541,-7.79816513761468,,
1760476420.6318865,0,-0.56671142578125,0.12451171875,0.12542724609375,9.419847328244275,-144.61068702290078,-82.08396946564885,-1526.697247706422,-36.14678899082569,-7.614678899082569,,
1760476420.652984,0,-0.56658935546875,0.12469482421875,0.12640380859375,9.419847328244275,-148.51908396946564,-48.86259541984733,-2536.605504587156,-35.41284403669725,-7.247706422018349,,
1760476420.6637607,0,-0.56640625,0.12445068359375,0.1258544921875,9.404580152671755,-132.8854961832061,-72.31297709923665,-2912.3853211009173,-35.5045871559633,-8.715596330275229,,
1760476420.6850855,0,-0.5662841796875,0.12457275390625,0.1258544921875,9.404580152671755,-109.43511450381679,-58.63358778625954,-2912.4770642201834,-35.04587155963303,-7.79816513761468,,
1760476420.7169569,0,-0.56610107421875,0.12481689453125,0.12548828125,9.427480916030534,-144.61068702290078,-52.770992366412216,563.5779816513761,-35.5045871559633,-7.706422018348624,,
1760476420.7277281,0,-0.56597900390625,0.12493896484375,0.12445068359375,9.427480916030534,-121.16030534351145,-197.38167938931298,-540.3669724770642,-35.59633027522936,-7.614678899082569,,
1760476420.748971,0,-0.5657958984375,0.12493896484375,0.1251220703125,9.419847328244275,-148.51908396946564,-7.824427480916031,140.8256880733945,-36.23853211009174,-7.9816513761467895,,
1760476420.7595973,0,-0.565673828125,0.125,0.1248779296875,9.412213740458014,-156.33587786259542,-70.3587786259542,2959.1743119266057,-35.87155963302752,-7.522935779816514,,
1760476420.7908652,0,-0.56549072265625,0.1253662109375,0.124267578125,9.442748091603054,-179.78625954198472,-119.21374045801527,-187.9816513761468,-36.23853211009174,-8.1651376146789,,
1760476420.821919,0,-0.56536865234375,0.1251220703125,0.12506103515625,9.404580152671755,-171.96946564885496,1.9541984732824427,-2207.7981651376144,-35.77981651376147,-8.073394495412845,,
1760476420.8323529,0,-0.565185546875,0.12481689453125,0.12530517578125,9.427480916030534,-127.02290076335878,-11.732824427480915,681.1009174311927,-36.14678899082569,-7.9816513761467895,,
1760476420.8531172,0,-0.5650634765625,0.12469482421875,0.1253662109375,9.419847328244275,-150.4732824427481,-82.08396946564885,728.0733944954129,-36.23853211009174,-7.79816513761468,,
1760476420.8635786,0,-0.56488037109375,0.12481689453125,0.1253662109375,9.419847328244275,-185.64885496183206,-80.12977099236642,446.2385321100918,-36.23853211009174,-8.1651376146789,,
1760476420.8844256,0,-0.56475830078125,0.12481689453125,0.1253662109375,9.396946564885496,-148.51908396946564,-54.725190839694655,1009.908256880734,-35.68807339449541,-7.889908256880735,,
1760476420.9052455,0,-0.5645751953125,0.12469482421875,0.12530517578125,9.412213740458014,-142.65648854961833,-48.86259541984733,328.8073394495413,-35.96330275229358,-8.34862385321101,,
1760476420.9159012,0,-0.564453125,0.124755859375,0.1253662109375,9.419847328244275,-199.32824427480915,-33.229007633587784,681.1009174311927,-35.5045871559633,-7.79816513761468,,
1760476420.9369748,0,-0.56427001953125,0.124755859375,0.1253662109375,9.412213740458014,-164.15267175572518,-48.86259541984733,775.045871559633,-35.59633027522936,-7.79816513761468,,
1760476420.9683025,0,-0.56414794921875,0.125,0.12481689453125,9.435114503816793,-142.65648854961833,-95.76335877862596,1573.6697247706422,-35.96330275229358,-8.34862385321101,,
1760476420.9790695,0,-0.56396484375,0.12469482421875,0.12567138671875,9.404580152671755,-175.87786259541986,-89.90076335877863,-1925.6880733944954,-35.22935779816514,-8.440366972477065,,
1760476421.0002964,0,-0.5638427734375,0.1248779296875,0.125732421875,9.412213740458014,-166.10687022900763,-82.08396946564885,-352.2018348623853,-36.60550458715596,-6.972477064220184,,
1760476421.0318637,0,-0.56365966796875,0.124755859375,0.125732421875,9.427480916030534,-160.24427480916032,-29.3206106870229,-446.1467889908257,-35.04587155963303,-8.256880733944955,,
1760476421.0425248,0,-0.56353759765625,0.12493896484375,0.125732421875,9.412213740458014,-170.01526717557252,-46.908396946564885,634.2201834862385,-35.59633027522936,-8.1651376146789,,
1760476421.0637877,0,-0.5633544921875,0.124755859375,0.125244140625,9.404580152671755,-162.19847328244273,-9.778625954198473,-2888.7155963302753,-35.5045871559633,-8.34862385321101,,
1760476421.095575,0,-0.563232421875,0.1248779296875,0.12542724609375,9.412213740458014,-154.38167938931298,-19.549618320610687,-2442.4770642201834,-35.59633027522936,-7.9816513761467895,,
1760476421.1064103,0,-0.56304931640625,0.1246337890625,0.12554931640625,9.419847328244275,-130.93129770992365,-52.770992366412216,375.8715596330275,-35.77981651376147,-7.889908256880735,,
1760476421.1279106,0,-0.56292724609375,0.1243896484375,0.125732421875,9.419847328244275,-177.8320610687023,-60.587786259541986,-1503.119266055046,-35.77981651376147,-7.9816513761467895,,
1760476421.1385646,0,-0.562744140625,0.12457275390625,0.12506103515625,9.427480916030534,-152.42748091603053,-3.9160305343511452,2747.9816513761466,-35.87155963302752,-9.174311926605505,,
1760476421.1598663,0,-0.5626220703125,0.12457275390625,0.1256103515625,9.412213740458014,-113.34351145038168,15.633587786259541,1996.4220183486236,-35.68807339449541,-8.1651376146789,,
1760476421.1705434,0,-0.56243896484375,0.124755859375,0.12567138671875,9.419847328244275,-191.5114503816794,-15.641221374045802,1409.2660550458716,-35.68807339449541,-8.34862385321101,,
1760476421.1917856,0,-0.56231689453125,0.12469482421875,0.12542724609375,9.427480916030534,-144.61068702290078,-25.412213740458014,-1174.3119266055046,-35.137614678899084,-8.073394495412845,,
1760476421.223411,0,-0.5621337890625,0.124755859375,0.12542724609375,9.404580152671755,-140.70229007633588,-64.49618320610686,-540.1834862385322,-35.5045871559633,-8.440366972477065,,
1760476421.2342439,0,-0.56201171875,0.12469482421875,0.125244140625,9.419847328244275,-115.29770992366412,-19.549618320610687,986.5137614678898,-35.41284403669725,-7.889908256880735,,
1760476421.2556226,0,-0.56182861328125,0.124755859375,0.12548828125,9.435114503816793,-181.74045801526717,-33.229007633587784,-1315.2293577981652,-36.51376146788991,-7.9816513761467895,,
1760476421.266452,0,-0.56170654296875,0.1239013671875,0.1246337890625,9.404580152671755,-179.78625954198472,-52.770992366412216,117.61467889908258,-35.77981651376147,-8.53211009174312,,
1760476421.2981677,0,-0.5615234375,0.125244140625,0.1256103515625,9.412213740458014,-160.24427480916032,-19.549618320610687,-234.86238532110093,-34.95412844036697,-7.9816513761467895,,
1760476421.3193262,0,-0.5614013671875,0.1246337890625,0.1251220703125,9.419847328244275,-195.4198473282443,-11.732824427480915,939.5412844036697,-35.59633027522936,-8.256880733944955,,
1760476421.3300664,0,-0.56121826171875,0.12493896484375,0.12481689453125,9.427480916030534,-152.42748091603053,-29.3206106870229,-2278.0733944954127,-35.5045871559633,-8.440366972477065,,
1760476421.351484,0,-0.56109619140625,0.1251220703125,0.12530517578125,9.412213740458014,-166.10687022900763,-9.778625954198473,2513.119266055046,-35.96330275229358,-8.440366972477065,,
1760476421.383281,0,-0.5609130859375,0.12481689453125,0.1256103515625,9.442748091603054,-168.06106870229007,-93.80916030534351,328.89908256880733,-35.22935779816514,-8.623853211009175,,
1760476421.3938606,0,-0.560791015625,0.1248779296875,0.1259765625,9.404580152671755,-150.4732824427481,-13.687022900763358,-70.45871559633028,-34.58715596330275,-8.623853211009175,,
1760476421.4149394,0,-0.56060791015625,0.12457275390625,0.1251220703125,9.419847328244275,-113.34351145038168,27.358778625954198,1291.834862385321,-34.95412844036697,-7.9816513761467895,,
1760476421.4468458,0,-0.56048583984375,0.124755859375,0.126953125,9.419847328244275,-150.4732824427481,-21.50381679389313,-2912.2935779816517,-35.59633027522936,-8.623853211009175,,
1760476421.4576006,0,-0.560302734375,0.124755859375,0.125244140625,9.419847328244275,-156.33587786259542,-48.86259541984733,1009.908256880734,-35.68807339449541,-8.53211009174312,,
1760476421.4788566,0,-0.5601806640625,0.12481689453125,0.12548828125,9.419847328244275,-168.06106870229007,-29.3206106870229,704.5871559633028,-35.5045871559633,-8.440366972477065,,
1760476421.489779,0,-0.55999755859375,0.124755859375,0.12548828125,9.419847328244275,-158.29007633587787,-54.725190839694655,540.1834862385322,-35.22935779816514,-8.53211009174312,,
1760476421.5106428,0,-0.55987548828125,0.124755859375,0.12548828125,9.419847328244275,-121.16030534351145,-17.595419847328245,657.6146788990826,-35.321100917431195,-8.073394495412845,,
1760476421.5421941,0,-0.5596923828125,0.12493896484375,0.12542724609375,9.427480916030534,-185.64885496183206,-9.778625954198473,540.1834862385322,-35.137614678899084,-8.623853211009175,,
1760476421.5529075,0,-0.5595703125,0.1248779296875,0.12548828125,9.419847328244275,-168.06106870229007,-13.687022900763358,446.2385321100918,-35.321100917431195,-8.807339449541285,,
1760476421.5740888,0,-0.55938720703125,0.12481689453125,0.12548828125,9.412213740458014,-168.06106870229007,-62.541984732824424,375.7798165137615,-35.321100917431195,-8.715596330275229,,
1760476421.5849128,0,-0.55926513671875,0.123779296875,0.1256103515625,9.396946564885496,-138.74809160305344,-58.63358778625954,-2372.3853211009173,-35.22935779816514,-8.440366972477065,,
1760476421.6062658,0,-0.55908203125,0.1248779296875,0.12542724609375,9.419847328244275,-101.61832061068702,-23.458015267175572,-587.3394495412845,-35.04587155963303,-8.715596330275229,,
1760476421.6380277,0,-0.5589599609375,0.12469482421875,0.12554931640625,9.419847328244275,-119.20610687022901,-70.3587786259542,-939.6330275229358,-34.67889908256881,-8.34862385321101,,
1760476421.6592562,0,-0.55877685546875,0.12469482421875,0.1256103515625,9.419847328244275,-140.70229007633588,-84.0381679389313,1667.4311926605506,-35.41284403669725,-8.1651376146789,,
1760476421.6699657,0,-0.55865478515625,0.12506103515625,0.1251220703125,9.435114503816793,-144.61068702290078,-7.824427480916031,-469.8165137614679,-35.87155963302752,-8.440366972477065,,
1760476421.6912537,0,-0.5584716796875,0.1248779296875,0.1253662109375,9.412213740458014,-156.33587786259542,-31.27480916030534,563.6697247706422,-35.41284403669725,-8.256880733944955,,
1760476421.7020802,0,-0.558349609375,0.124755859375,0.1253662109375,9.419847328244275,-160.24427480916032,-43.0,587.1559633027523,-35.321100917431195,-8.440366972477065,,
1760476421.7234342,0,-0.55816650390625,0.12481689453125,0.12542724609375,9.419847328244275,-158.29007633587787,-48.86259541984733,775.045871559633,-34.862385321100916,-8.34862385321101,,
1760476421.7342024,0,-0.55804443359375,0.124755859375,0.12542724609375,9.435114503816793,-142.65648854961833,-35.18320610687023,798.5321100917431,-35.22935779816514,-8.440366972477065,,
1760476421.755474,0,-0.557861328125,0.12469482421875,0.1253662109375,9.419847328244275,-144.61068702290078,-21.50381679389313,422.7522935779817,-35.321100917431195,-8.440366972477065,,
1760476421.7873423,0,-0.5577392578125,0.1248779296875,0.1253662109375,9.427480916030534,-158.29007633587787,-29.3206106870229,704.5871559633028,-35.59633027522936,-8.440366972477065,,
1760476421.7980878,0,-0.55755615234375,0.12493896484375,0.1253662109375,9.427480916030534,-146.5648854961832,-17.595419847328245,610.6422018348624,-35.87155963302752,-8.1651376146789,,
1760476421.819347,0,-0.55743408203125,0.124755859375,0.1253662109375,9.419847328244275,-152.42748091603053,-62.541984732824424,422.7522935779817,-36.055045871559635,-7.614678899082569,,
1760476421.8512163,0,-0.5572509765625,0.12481689453125,0.1253662109375,9.412213740458014,-201.2824427480916,-113.35114503816794,1150.8256880733945,-35.22935779816514,-8.34862385321101,,
1760476421.8619606,0,-0.55712890625,0.12481689453125,0.12542724609375,9.427480916030534,-183.6946564885496,-87.94656488549619,563.7614678899083,-34.862385321100916,-8.715596330275229,,
1760476421.8833895,0,-0.55694580078125,0.124755859375,0.12542724609375,9.412213740458014,-154.38167938931298,-31.27480916030534,211.4678899082569,-35.77981651376147,-8.715596330275229,,
1760476421.8942199,0,-0.55682373046875,0.1248779296875,0.125244140625,9.427480916030534,-140.70229007633588,-11.732824427480915,-1737.9816513761468,-34.95412844036697,-8.440366972477065,,
1760476421.9155254,0,-0.556640625,0.124755859375,0.12554931640625,9.427480916030534,-148.51908396946564,-19.549618320610687,-1855.4128440366974,-35.77981651376147,-8.1651376146789,,
1760476421.9474196,0,-0.5565185546875,0.1248779296875,0.12542724609375,9.412213740458014,-134.83969465648855,-64.49618320610686,1925.8715596330276,-35.321100917431195,-8.256880733944955,,
1760476421.958206,0,-0.55633544921875,0.12481689453125,0.12554931640625,9.427480916030534,-179.78625954198472,-111.3969465648855,1362.2018348623853,-35.41284403669725,-8.073394495412845,,
1760476421.9795213,0,-0.55621337890625,0.1246337890625,0.12542724609375,9.412213740458014,-199.32824427480915,-138.75572519083968,868.9908256880734,-34.4954128440367,-8.623853211009175,,
1760476422.0009706,0,-0.5560302734375,0.124755859375,0.12542724609375,9.427480916030534,-232.54961832061068,-146.57251908396947,657.6146788990826,-35.22935779816514,-8.89908256880734,,
1760476422.011737,0,-0.555908203125,0.1248779296875,0.12548828125,9.419847328244275,-160.24427480916032,-136.80152671755727,1925.8715596330276,-35.22935779816514,-8.807339449541285,,
1760476422.0329967,0,-0.55572509765625,0.12469482421875,0.12548828125,9.412213740458014,-214.9618320610687,-148.5267175572519,1315.2293577981652,-35.87155963302752,-8.073394495412845,,
1760476422.0650775,0,-0.55560302734375,0.12481689453125,0.12548828125,9.404580152671755,-238.41221374045801,-154.38931297709922,1737.9816513761468,-34.4954128440367,-8.440366972477065,,
1760476422.0758462,0,-0.555419921875,0.124755859375,0.1253662109375,9.419847328244275,-179.78625954198472,-148.5267175572519,1056.8807339449543,-34.95412844036697,-8.34862385321101,,
1760476422.097031,0,-0.5552978515625,0.12469482421875,0.12554931640625,9.435114503816793,-134.83969465648855,-52.770992366412216,681.1009174311927,-34.403669724770644,-8.440366972477065,,
1760476422.1077266,0,-0.55511474609375,0.1246337890625,0.1253662109375,9.404580152671755,-138.74809160305344,64.4885496183206,634.1284403669725,-35.321100917431195,-8.623853211009175,,
1760476422.129001,0,-0.55499267578125,0.1246337890625,0.1253662109375,9.404580152671755,-41.038167938931295,242.3206106870229,939.4495412844037,-35.22935779816514,-8.623853211009175,,
1760476422.1609132,0,-0.5548095703125,0.12457275390625,0.12554931640625,9.419847328244275,-105.52671755725191,93.80152671755725,2513.02752293578,-35.68807339449541,-8.256880733944955,,
1760476422.1716228,0,-0.5546875,0.12548828125,0.12518310546875,9.419847328244275,3.9160305343511452,-156.33587786259542,2466.0550458715597,-35.04587155963303,-8.990825688073395,,
1760476422.1930304,0,-0.55450439453125,0.12469482421875,0.12548828125,9.412213740458014,-56.67175572519084,74.25954198473282,634.1284403669725,-35.22935779816514,-8.34862385321101,,
1760476422.2249591,0,-0.55438232421875,0.12481689453125,0.12548828125,9.412213740458014,-109.43511450381679,-21.50381679389313,822.0183486238533,-34.862385321100916,-8.623853211009175,,
1760476422.2357452,0,-0.55419921875,0.1248779296875,0.1253662109375,9.404580152671755,-132.8854961832061,-41.045801526717554,305.3211009174312,-35.321100917431195,-8.53211009174312,,
1760476422.2570062,0,-0.5540771484375,0.124755859375,0.12542724609375,9.396946564885496,-156.33587786259542,-15.641221374045802,751.559633027523,-35.5045871559633,-8.53211009174312,,
1760476422.2890172,0,-0.55389404296875,0.12481689453125,0.12542724609375,9.435114503816793,-158.29007633587787,-7.824427480916031,563.6697247706422,-35.04587155963303,-7.79816513761468,,
1760476422.299787,0,-0.55377197265625,0.12481689453125,0.12554931640625,9.412213740458014,-87.93893129770993,3.9083969465648853,704.5871559633028,-35.04587155963303,-8.256880733944955,,
1760476422.3213422,0,-0.5535888671875,0.12469482421875,0.12542724609375,9.419847328244275,-134.83969465648855,-31.27480916030534,375.7798165137615,-35.321100917431195,-8.1651376146789,,
1760476422.3532095,0,-0.553466796875,0.1248779296875,0.1253662109375,9.419847328244275,-119.20610687022901,-23.458015267175572,446.2385321100918,-34.67889908256881,-8.073394495412845,,
1760476422.3639655,0,-0.55328369140625,0.12493896484375,0.12548828125,9.419847328244275,-171.96946564885496,-29.3206106870229,915.9633027522937,-35.87155963302752,-8.073394495412845,,
1760476422.3747253,0,-0.55316162109375,0.12481689453125,0.12530517578125,9.419847328244275,-127.02290076335878,-25.412213740458014,962.9357798165138,-35.321100917431195,-8.623853211009175,,
1760476422.3855658,0,-0.552978515625,0.12353515625,0.12298583984375,9.404580152671755,-115.29770992366412,37.12977099236641,0.45871559633027525,-35.41284403669725,-8.440366972477065,,
1760476422.4174266,0,-0.5528564453125,0.124755859375,0.1263427734375,9.442748091603054,-160.24427480916032,17.587786259541986,2513.48623853211,-34.95412844036697,-9.08256880733945,,
1760476422.4282212,0,-0.55267333984375,0.125,0.12579345703125,9.389312977099237,-136.793893129771,-68.40458015267176,892.4770642201836,-34.95412844036697,-8.807339449541285,,
1760476422.439066,0,-0.55255126953125,0.12481689453125,0.1253662109375,9.396946564885496,-136.793893129771,-35.18320610687023,469.72477064220186,-34.403669724770644,-9.44954128440367,,
1760476422.4710085,0,-0.5523681640625,0.12481689453125,0.12530517578125,9.427480916030534,-127.02290076335878,-23.458015267175572,845.5045871559633,-34.95412844036697,-8.623853211009175,,
1760476422.481787,0,-0.55224609375,0.1248779296875,0.12542724609375,9.427480916030534,-132.8854961832061,-44.954198473282446,704.5871559633028,-34.95412844036697,-8.89908256880734,,
1760476422.5031092,0,-0.55206298828125,0.12481689453125,0.12542724609375,9.419847328244275,-136.793893129771,-39.091603053435115,704.5871559633028,-35.96330275229358,-8.34862385321101,,
1760476422.5350385,0,-0.55194091796875,0.124755859375,0.1253662109375,9.435114503816793,-136.793893129771,-48.86259541984733,446.2385321100918,-35.04587155963303,-8.990825688073395,,
1760476422.54573,0,-0.5517578125,0.12481689453125,0.1253662109375,9.419847328244275,-156.33587786259542,-33.229007633587784,657.6146788990826,-34.862385321100916,-8.715596330275229,,
1760476422.5670362,0,-0.5516357421875,0.124755859375,0.12530517578125,9.404580152671755,-125.06870229007633,-31.27480916030534,493.2110091743119,-34.403669724770644,-8.715596330275229,,
1760476422.577805,0,-0.55145263671875,0.1248779296875,0.12548828125,9.427480916030534,-132.8854961832061,-41.045801526717554,610.6422018348624,-34.862385321100916,-9.357798165137615,,
1760476422.5991995,0,-0.55133056640625,0.1248779296875,0.1253662109375,9.419847328244275,-127.02290076335878,-44.954198473282446,681.1009174311927,-36.3302752293578,-8.34862385321101,,
1760476422.6310556,0,-0.5511474609375,0.1248779296875,0.12548828125,9.412213740458014,-152.42748091603053,-54.725190839694655,962.9357798165138,-35.5045871559633,-8.1651376146789,,
1760476422.6418138,0,-0.551025390625,0.12481689453125,0.1253662109375,9.419847328244275,-156.33587786259542,-33.229007633587784,634.1284403669725,-35.137614678899084,-8.440366972477065,,
1760476422.6631536,0,-0.55084228515625,0.12481689453125,0.12542724609375,9.419847328244275,-123.1145038167939,-1.9618320610687023,1056.8807339449543,-34.67889908256881,-8.440366972477065,,
1760476422.6950333,0,-0.55072021484375,0.12469482421875,0.12554931640625,9.427480916030534,-123.1145038167939,-35.18320610687023,469.72477064220186,-34.4954128440367,-8.807339449541285,,
1760476422.7058349,0,-0.550537109375,0.12481689453125,0.12548828125,9.412213740458014,-156.33587786259542,-39.091603053435115,868.9908256880734,-35.321100917431195,-8.715596330275229,,
1760476422.7272294,0,-0.5504150390625,0.12530517578125,0.12213134765625,9.404580152671755,-93.80152671755725,19.541984732824428,23.57798165137615,-35.59633027522936,-8.807339449541285,,
1760476422.7379727,0,-0.55023193359375,0.12493896484375,0.126220703125,9.412213740458014,-218.87022900763358,-80.12977099236642,470.0,-34.862385321100916,-8.53211009174312,,
1760476422.7593749,0,-0.55010986328125,0.1243896484375,0.12762451171875,9.412213740458014,-132.8854961832061,-19.549618320610687,587.1559633027523,-35.04587155963303,-8.34862385321101,,
1760476422.7807105,0,-0.5499267578125,0.125,0.12506103515625,9.412213740458014,-154.38167938931298,-43.0,-1737.9816513761468,-34.95412844036697,-8.34862385321101,,
1760476422.7915154,0,-0.5498046875,0.1248779296875,0.1248779296875,9.419847328244275,-142.65648854961833,1.9541984732824427,-305.3211009174312,-34.403669724770644,-9.26605504587156,,
1760476422.8128998,0,-0.54962158203125,0.1240234375,0.1265869140625,9.427480916030534,-170.01526717557252,-58.63358778625954,-2583.4862385321103,-35.137614678899084,-8.715596330275229,,
1760476422.8447995,0,-0.54949951171875,0.12518310546875,0.1243896484375,9.412213740458014,-142.65648854961833,-1.9618320610687023,2794.862385321101,-35.04587155963303,-9.26605504587156,,
1760476422.8555415,0,-0.54931640625,0.1240234375,0.1263427734375,9.412213740458014,-170.01526717557252,-52.770992366412216,1808.348623853211,-35.137614678899084,-8.807339449541285,,
1760476422.8769987,0,-0.5491943359375,0.1248779296875,0.12493896484375,9.427480916030534,-132.8854961832061,-82.08396946564885,2184.1284403669724,-35.04587155963303,-9.174311926605505,,
1760476422.9089413,0,-0.54901123046875,0.12469482421875,0.1259765625,9.412213740458014,-150.4732824427481,-7.824427480916031,1291.7431192660551,-34.95412844036697,-9.174311926605505,,
1760476422.9196954,0,-0.54888916015625,0.1248779296875,0.1248779296875,9.404580152671755,-148.51908396946564,-9.778625954198473,2583.394495412844,-34.4954128440367,-9.08256880733945,,
1760476422.941125,0,-0.5487060546875,0.12469482421875,0.1258544921875,9.427480916030534,-168.06106870229007,-5.870229007633588,1573.48623853211,-34.77064220183486,-8.53211009174312,,
1760476422.9729586,0,-0.548583984375,0.1248779296875,0.1256103515625,9.396946564885496,-148.51908396946564,-17.595419847328245,-187.9816513761468,-35.321100917431195,-8.623853211009175,,
1760476422.9838557,0,-0.54840087890625,0.12493896484375,0.1251220703125,9.412213740458014,-156.33587786259542,-23.458015267175572,2418.9908256880735,-35.04587155963303,-8.623853211009175,,
1760476423.0050924,0,-0.54827880859375,0.1248779296875,0.12567138671875,9.419847328244275,-156.33587786259542,-62.541984732824424,563.6697247706422,-34.77064220183486,-9.44954128440367,,
1760476423.0158348,0,-0.548095703125,0.1253662109375,0.12445068359375,9.419847328244275,-138.74809160305344,-41.045801526717554,-446.3302752293578,-34.403669724770644,-9.174311926605505,,
1760476423.0371704,0,-0.5479736328125,0.1248779296875,0.12548828125,9.419847328244275,-123.1145038167939,-60.587786259541986,1596.880733944954,-34.12844036697248,-9.08256880733945,,
1760476423.0479522,0,-0.54779052734375,0.12457275390625,0.1263427734375,9.427480916030534,-164.15267175572518,-27.366412213740457,493.2110091743119,-35.04587155963303,-8.440366972477065,,
1760476423.0694036,0,-0.54766845703125,0.1248779296875,0.12542724609375,9.419847328244275,-171.96946564885496,-72.31297709923665,2348.7155963302753,-35.321100917431195,-8.623853211009175,,
1760476423.1007354,0,-0.5474853515625,0.12457275390625,0.12481689453125,9.435114503816793,-164.15267175572518,-13.687022900763358,1784.9541284403672,-35.41284403669725,-8.440366972477065,,
1760476423.1111639,0,-0.54736328125,0.12451171875,0.12591552734375,9.404580152671755,-127.02290076335878,-31.27480916030534,1479.633027522936,-34.403669724770644,-8.715596330275229,,
1760476423.132066,0,-0.54718017578125,0.12457275390625,0.12567138671875,9.412213740458014,-142.65648854961833,-0.007633587786259542,-2348.623853211009,-35.04587155963303,-8.807339449541285,,
1760476423.1634152,0,-0.54705810546875,0.12481689453125,0.12542724609375,9.435114503816793,-127.02290076335878,-52.770992366412216,1244.770642201835,-33.85321100917431,-9.08256880733945,,
1760476423.1747875,0,-0.546875,0.1248779296875,0.1253662109375,9.404580152671755,-171.96946564885496,-9.778625954198473,1409.1743119266057,-35.137614678899084,-8.89908256880734,,
1760476423.185218,0,-0.5467529296875,0.12481689453125,0.12530517578125,9.412213740458014,-168.06106870229007,-50.81679389312977,-422.8440366972477,-34.862385321100916,-8.53211009174312,,
1760476423.195687,0,-0.54656982421875,0.12493896484375,0.12530517578125,9.412213740458014,-134.83969465648855,-62.541984732824424,-892.5688073394494,-35.68807339449541,-8.990825688073395,,
1760476423.2273614,0,-0.54644775390625,0.12469482421875,0.12548828125,9.412213740458014,-130.93129770992365,-43.0,2559.908256880734,-34.58715596330275,-8.53211009174312,,
1760476423.2590833,0,-0.5462646484375,0.124755859375,0.1260986328125,9.427480916030534,-164.15267175572518,-39.091603053435115,516.6972477064221,-34.862385321100916,-8.715596330275229,,
1760476423.269553,0,-0.546142578125,0.12481689453125,0.1253662109375,9.412213740458014,-177.8320610687023,-17.595419847328245,892.4770642201836,-34.862385321100916,-8.715596330275229,,
1760476423.2913334,0,-0.54595947265625,0.124755859375,0.12530517578125,9.404580152671755,-144.61068702290078,15.633587786259541,117.43119266055047,-35.5045871559633,-8.715596330275229,,
1760476423.3224216,0,-0.54583740234375,0.12481689453125,0.12542724609375,9.419847328244275,-138.74809160305344,-43.0,0.0,-34.77064220183486,-9.174311926605505,,
1760476423.335971,0,-0.545654296875,0.1248779296875,0.12530517578125,9.427480916030534,-154.38167938931298,-29.3206106870229,-23.57798165137615,-35.137614678899084,-8.1651376146789,,
1760476423.3464892,0,-0.5455322265625,0.124755859375,0.12542724609375,9.419847328244275,-117.25190839694656,-35.18320610687023,-328.89908256880733,-34.77064220183486,-8.256880733944955,,
1760476423.3569717,0,-0.54534912109375,0.1248779296875,0.1253662109375,9.412213740458014,-115.29770992366412,-56.6793893129771,281.8348623853211,-35.22935779816514,-8.440366972477065,,
1760476423.3782346,0,-0.54522705078125,0.1248779296875,0.12530517578125,9.427480916030534,-179.78625954198472,-58.63358778625954,469.72477064220186,-34.67889908256881,-8.34862385321101,,
1760476423.411616,0,-0.5450439453125,0.12481689453125,0.1253662109375,9.419847328244275,-138.74809160305344,-58.63358778625954,657.6146788990826,-34.58715596330275,-9.26605504587156,,
1760476423.4222374,0,-0.544921875,0.12451171875,0.124755859375,9.442748091603054,-144.61068702290078,-5.870229007633588,2442.5688073394494,-34.4954128440367,-8.623853211009175,,
1760476423.4432364,0,-0.54473876953125,0.12493896484375,0.1258544921875,9.435114503816793,-170.01526717557252,-29.3206106870229,1244.770642201835,-34.77064220183486,-9.08256880733945,,
1760476423.4745471,0,-0.54461669921875,0.125,0.125244140625,9.435114503816793,-168.06106870229007,-41.045801526717554,986.4220183486239,-34.31192660550459,-8.623853211009175,,
1760476423.4852142,0,-0.54443359375,0.124755859375,0.1251220703125,9.427480916030534,-164.15267175572518,-9.778625954198473,2348.623853211009,-35.22935779816514,-8.53211009174312,,
1760476423.5065577,0,-0.5443115234375,0.12481689453125,0.1253662109375,9.419847328244275,-160.24427480916032,-15.641221374045802,1996.330275229358,-34.67889908256881,-8.807339449541285,,
1760476423.5383303,0,-0.54412841796875,0.12481689453125,0.12554931640625,9.419847328244275,-132.8854961832061,-62.541984732824424,1831.9266055045873,-34.22018348623853,-8.990825688073395,,
1760476423.5492013,0,-0.54400634765625,0.12481689453125,0.12548828125,9.412213740458014,-152.42748091603053,-44.954198473282446,1244.770642201835,-35.04587155963303,-9.357798165137615,,
1760476423.5702813,0,-0.5438232421875,0.12481689453125,0.12548828125,9.419847328244275,-156.33587786259542,-19.549618320610687,1033.3944954128442,-34.67889908256881,-8.623853211009175,,
1760476423.6019225,0,-0.543701171875,0.12469482421875,0.1259765625,9.419847328244275,-152.42748091603053,-91.85496183206106,93.94495412844037,-35.41284403669725,-9.08256880733945,,
1760476423.6125958,0,-0.54351806640625,0.124755859375,0.12542724609375,9.427480916030534,-154.38167938931298,-21.50381679389313,540.1834862385322,-35.137614678899084,-8.623853211009175,,
1760476423.6338449,0,-0.54339599609375,0.12469482421875,0.12548828125,9.404580152671755,-156.33587786259542,-46.908396946564885,540.1834862385322,-34.862385321100916,-9.26605504587156,,
1760476423.644581,0,-0.543212890625,0.124755859375,0.12548828125,9.412213740458014,-166.10687022900763,-27.366412213740457,234.86238532110093,-35.22935779816514,-9.08256880733945,,
1760476423.6553757,0,-0.5430908203125,0.12451171875,0.12469482421875,9.419847328244275,-144.61068702290078,-60.587786259541986,-1385.7798165137615,-34.403669724770644,-8.34862385321101,,
1760476423.666216,0,-0.54290771484375,0.12493896484375,0.12591552734375,9.427480916030534,-175.87786259541986,-17.595419847328245,446.2385321100918,-34.67889908256881,-8.807339449541285,,
1760476423.6980083,0,-0.54278564453125,0.124755859375,0.12530517578125,9.404580152671755,-146.5648854961832,-33.229007633587784,328.8073394495413,-34.67889908256881,-8.256880733944955,,
1760476423.7299635,0,-0.5426025390625,0.124755859375,0.12554931640625,9.404580152671755,-175.87786259541986,-76.22137404580153,-563.7614678899083,-35.22935779816514,-9.26605504587156,,
1760476423.7407875,0,-0.54248046875,0.124755859375,0.12548828125,9.404580152671755,-162.19847328244273,-15.641221374045802,328.8073394495413,-34.4954128440367,-8.715596330275229,,
1760476423.7622232,0,-0.54229736328125,0.12493896484375,0.1253662109375,9.412213740458014,-130.93129770992365,-48.86259541984733,140.91743119266056,-35.04587155963303,-8.623853211009175,,
1760476423.7729793,0,-0.54217529296875,0.1248779296875,0.12542724609375,9.412213740458014,-170.01526717557252,-60.587786259541986,798.5321100917431,-34.22018348623853,-8.990825688073395,,
1760476423.7943766,0,-0.5419921875,0.12469482421875,0.12542724609375,9.404580152671755,-185.64885496183206,-52.770992366412216,422.7522935779817,-34.58715596330275,-8.256880733944955,,
1760476423.8262858,0,-0.5418701171875,0.1248779296875,0.12542724609375,9.412213740458014,-179.78625954198472,-46.908396946564885,657.6146788990826,-35.137614678899084,-8.807339449541285,,
1760476423.8370264,0,-0.54168701171875,0.1248779296875,0.125,9.419847328244275,-173.9236641221374,-48.86259541984733,2184.2201834862385,-35.22935779816514,-8.623853211009175,,
1760476423.8479912,0,-0.54156494140625,0.1248779296875,0.12469482421875,9.427480916030534,-150.4732824427481,-48.86259541984733,540.1834862385322,-35.41284403669725,-8.89908256880734,,
1760476423.8905284,0,-0.5413818359375,0.1251220703125,0.12420654296875,9.404580152671755,-181.74045801526717,-19.549618320610687,1714.4954128440368,-34.95412844036697,-8.807339449541285,,
1760476423.901327,0,-0.541259765625,0.12628173828125,0.12481689453125,9.412213740458014,-166.10687022900763,-0.007633587786259542,93.8532110091743,-35.137614678899084,-8.807339449541285,,
1760476423.922817,0,-0.54107666015625,0.1251220703125,0.12554931640625,9.419847328244275,-130.93129770992365,-27.366412213740457,-634.3119266055046,-34.77064220183486,-8.807339449541285,,
1760476423.9545918,0,-0.54095458984375,0.1241455078125,0.1263427734375,9.427480916030534,-125.06870229007633,52.76335877862596,-1714.4036697247707,-34.77064220183486,-8.623853211009175,,
1760476423.9653628,0,-0.540771484375,0.12518310546875,0.125,9.442748091603054,-191.5114503816794,-58.63358778625954,2818.623853211009,-34.67889908256881,-8.89908256880734,,
1760476423.9761724,0,-0.5406494140625,0.124267578125,0.1248779296875,9.374045801526718,218.87786259541986,5.862595419847328,1409.4495412844037,-34.77064220183486,-8.715596330275229,,
1760476423.9870124,0,-0.54046630859375,0.124755859375,0.125,9.396946564885496,138.7709923664122,11.725190839694656,634.3119266055046,-34.4954128440367,-9.26605504587156,,
1760476424.019039,0,-0.54034423828125,0.124755859375,0.12603759765625,9.458015267175572,68.41221374045801,-140.70992366412213,939.6330275229358,-34.12844036697248,-8.89908256880734,,
1760476424.029858,0,-0.5401611328125,0.125,0.1253662109375,9.396946564885496,119.22137404580153,48.85496183206107,-2372.0183486238534,-34.4954128440367,-9.357798165137615,,
1760476424.0510318,0,-0.5400390625,0.1246337890625,0.12518310546875,9.419847328244275,74.27480916030534,-39.091603053435115,681.1926605504588,-34.58715596330275,-9.08256880733945,,
1760476424.0822275,0,-0.53985595703125,0.12445068359375,0.1256103515625,9.450381679389313,101.62595419847328,39.083969465648856,1761.5596330275228,-34.862385321100916,-8.990825688073395,,
1760476424.0927231,0,-0.53973388671875,0.124755859375,0.1259765625,9.419847328244275,246.2290076335878,-41.045801526717554,1292.2018348623853,-34.67889908256881,-9.541284403669724,,
1760476424.1140063,0,-0.53955078125,0.12518310546875,0.1241455078125,9.381679389312977,-101.61832061068702,-13.687022900763358,-3005.9633027522937,-34.95412844036697,-9.174311926605505,,
1760476424.1248007,0,-0.5394287109375,0.124755859375,0.1239013671875,9.427480916030534,-111.38931297709924,-25.412213740458014,-1949.2660550458716,-34.58715596330275,-9.63302752293578,,
1760476424.1460435,0,-0.53924560546875,0.12481689453125,0.12469482421875,9.442748091603054,170.01526717557252,-43.0,-1667.5229357798166,-34.12844036697248,-9.26605504587156,,
1760476424.177451,0,-0.53912353515625,0.12493896484375,0.12481689453125,9.427480916030534,93.80152671755725,-33.229007633587784,469.72477064220186,-34.4954128440367,-9.541284403669724,,
1760476424.188229,0,-0.5389404296875,0.12481689453125,0.12493896484375,9.419847328244275,-111.3969465648855,-35.18320610687023,23.486238532110093,-35.04587155963303,-9.08256880733945,,
1760476424.2095506,0,-0.538818359375,0.12481689453125,0.12493896484375,9.435114503816793,211.04580152671755,-17.595419847328245,-563.7614678899083,-34.67889908256881,-9.174311926605505,,
1760476424.2203496,0,-0.53863525390625,0.124755859375,0.12506103515625,9.404580152671755,187.59541984732823,-29.3206106870229,-2536.605504587156,-33.57798165137615,-9.63302752293578,,
1760476424.2417796,0,-0.53851318359375,0.1248779296875,0.12530517578125,9.435114503816793,181.73282442748092,-9.778625954198473,-2935.8715596330276,-34.12844036697248,-9.26605504587156,,
1760476424.2737775,0,-0.538330078125,0.12481689453125,0.12530517578125,9.404580152671755,-234.5114503816794,-25.412213740458014,-2794.9541284403667,-34.67889908256881,-9.541284403669724,,
1760476424.2845685,0,-0.5382080078125,0.12481689453125,0.12530517578125,9.419847328244275,-156.34351145038167,-27.366412213740457,-2560.091743119266,-34.31192660550459,-8.89908256880734,,
1760476424.295383,0,-0.53802490234375,0.125,0.12603759765625,9.381679389312977,-162.19847328244273,-1.9618320610687023,-446.3302752293578,-34.77064220183486,-9.08256880733945,,
1760476424.3272693,0,-0.53790283203125,0.12481689453125,0.125244140625,9.419847328244275,-148.51908396946564,-46.908396946564885,-822.1100917431193,-34.58715596330275,-9.44954128440367,,
1760476424.3380308,0,-0.5377197265625,0.12469482421875,0.1253662109375,9.419847328244275,-140.70229007633588,-44.954198473282446,234.86238532110093,-34.12844036697248,-9.174311926605505,,
1760476424.3593707,0,-0.53759765625,0.12481689453125,0.1253662109375,9.412213740458014,-134.83969465648855,-21.50381679389313,446.2385321100918,-34.22018348623853,-8.807339449541285,,
1760476424.3700716,0,-0.53741455078125,0.12481689453125,0.12542724609375,9.404580152671755,-152.42748091603053,-3.9160305343511452,610.6422018348624,-33.94495412844037,-9.81651376146789,,
1760476424.3913124,0,-0.53729248046875,0.124755859375,0.12542724609375,9.435114503816793,-105.52671755725191,-13.687022900763358,352.2935779816514,-35.04587155963303,-9.357798165137615,,
1760476424.4228923,0,-0.537109375,0.1248779296875,0.125244140625,9.412213740458014,-117.25190839694656,-29.3206106870229,-94.03669724770643,-34.31192660550459,-9.44954128440367,,
1760476424.454583,0,-0.5369873046875,0.1248779296875,0.12542724609375,9.419847328244275,-115.29770992366412,-54.725190839694655,281.8348623853211,-34.4954128440367,-9.44954128440367,,
1760476424.4652982,0,-0.53680419921875,0.124755859375,0.12542724609375,9.412213740458014,-168.06106870229007,-11.732824427480915,117.43119266055047,-34.31192660550459,-9.08256880733945,,
1760476424.4867694,0,-0.53668212890625,0.12493896484375,0.12542724609375,9.419847328244275,-127.02290076335878,-41.045801526717554,-117.52293577981652,-34.12844036697248,-9.174311926605505,,
1760476424.518686,0,-0.5364990234375,0.124755859375,0.12548828125,9.419847328244275,-140.70229007633588,-44.954198473282446,234.86238532110093,-34.862385321100916,-9.08256880733945,,
1760476424.5293772,0,-0.536376953125,0.12481689453125,0.12542724609375,9.419847328244275,-152.42748091603053,-29.3206106870229,305.3211009174312,-35.68807339449541,-9.357798165137615,,
1760476424.5504847,0,-0.53619384765625,0.12481689453125,0.1256103515625,9.427480916030534,-109.43511450381679,-3.9160305343511452,775.045871559633,-35.04587155963303,-8.715596330275229,,
1760476424.561281,0,-0.53607177734375,0.1248779296875,0.1253662109375,9.404580152671755,-173.9236641221374,-41.045801526717554,587.1559633027523,-34.31192660550459,-9.357798165137615,,
1760476424.5822494,0,-0.535888671875,0.12469482421875,0.12548828125,9.412213740458014,-134.83969465648855,-25.412213740458014,1080.3669724770643,-34.22018348623853,-9.174311926605505,,
1760476424.5932615,0,-0.5357666015625,0.12481689453125,0.12542724609375,9.412213740458014,-166.10687022900763,-52.770992366412216,962.9357798165138,-34.31192660550459,-9.174311926605505,,
1760476424.6145744,0,-0.53558349609375,0.1248779296875,0.12548828125,9.404580152671755,-160.24427480916032,-37.13740458015267,422.7522935779817,-34.31192660550459,-8.89908256880734,,
1760476424.6461985,0,-0.53546142578125,0.12493896484375,0.12542724609375,9.412213740458014,-154.38167938931298,7.816793893129771,845.5045871559633,-34.862385321100916,-9.26605504587156,,
1760476424.657094,0,-0.5352783203125,0.1248779296875,0.12548828125,9.442748091603054,-173.9236641221374,-5.870229007633588,469.72477064220186,-34.22018348623853,-8.89908256880734,,
1760476424.6780498,0,-0.53515625,0.1248779296875,0.12548828125,9.435114503816793,-117.25190839694656,-35.18320610687023,587.1559633027523,-35.04587155963303,-8.53211009174312,,
1760476424.6992795,0,-0.53497314453125,0.1248779296875,0.12542724609375,9.419847328244275,-128.9770992366412,-21.50381679389313,704.5871559633028,-34.31192660550459,-8.990825688073395,,
1760476424.7097163,0,-0.53485107421875,0.124755859375,0.1253662109375,9.419847328244275,-140.70229007633588,-43.0,563.6697247706422,-33.76146788990826,-9.44954128440367,,
1760476424.7415352,0,-0.53466796875,0.1246337890625,0.1253662109375,9.412213740458014,-136.793893129771,-33.229007633587784,-211.4678899082569,-34.67889908256881,-9.08256880733945,,
1760476424.7520165,0,-0.5345458984375,0.1248779296875,0.12567138671875,9.427480916030534,-138.74809160305344,-27.366412213740457,845.5045871559633,-34.58715596330275,-9.541284403669724,,
1760476424.7728527,0,-0.53436279296875,0.124267578125,0.12518310546875,9.412213740458014,-117.25190839694656,-58.63358778625954,2160.7339449541287,-35.22935779816514,-8.53211009174312,,
1760476424.7833452,0,-0.53424072265625,0.12518310546875,0.12542724609375,9.404580152671755,-127.02290076335878,-1.9618320610687023,939.5412844036697,-33.94495412844037,-9.08256880733945,,
1760476424.8042343,0,-0.5340576171875,0.12493896484375,0.125732421875,9.389312977099237,-154.38167938931298,33.221374045801525,-70.36697247706421,-34.03669724770642,-8.89908256880734,,
1760476424.835442,0,-0.533935546875,0.12445068359375,0.1253662109375,9.419847328244275,-128.9770992366412,-27.366412213740457,-117.52293577981652,-34.4954128440367,-8.89908256880734,,
1760476424.8458207,0,-0.53375244140625,0.12493896484375,0.12548828125,9.412213740458014,-125.06870229007633,-52.770992366412216,399.26605504587155,-34.03669724770642,-9.174311926605505,,
1760476424.8665767,0,-0.53363037109375,0.1260986328125,0.12615966796875,9.419847328244275,-146.5648854961832,-50.81679389312977,2019.816513761468,-34.77064220183486,-8.715596330275229,,
1760476424.908036,0,-0.533447265625,0.1248779296875,0.1253662109375,9.419847328244275,-150.4732824427481,-46.908396946564885,493.2110091743119,-34.862385321100916,-9.174311926605505,,
1760476424.9185436,0,-0.5333251953125,0.12493896484375,0.12542724609375,9.419847328244275,-119.20610687022901,-37.13740458015267,587.1559633027523,-34.22018348623853,-9.44954128440367,,
1760476424.9395535,0,-0.53314208984375,0.1248779296875,0.12548828125,9.419847328244275,-175.87786259541986,-25.412213740458014,493.2110091743119,-34.403669724770644,-8.990825688073395,,
1760476424.950212,0,-0.53302001953125,0.12481689453125,0.12548828125,9.419847328244275,-154.38167938931298,-50.81679389312977,775.045871559633,-34.03669724770642,-9.63302752293578,,
1760476424.971354,0,-0.5328369140625,0.12481689453125,0.12530517578125,9.404580152671755,-152.42748091603053,-23.458015267175572,681.1009174311927,-34.67889908256881,-9.08256880733945,,
1760476424.992591,0,-0.53271484375,0.12481689453125,0.1253662109375,9.427480916030534,-164.15267175572518,-33.229007633587784,775.045871559633,-34.22018348623853,-9.63302752293578,,
1760476425.003424,0,-0.53253173828125,0.1248779296875,0.12548828125,9.412213740458014,-166.10687022900763,-27.366412213740457,516.6972477064221,-34.862385321100916,-9.174311926605505,,
1760476425.0245821,0,-0.53240966796875,0.1248779296875,0.12542724609375,9.427480916030534,-134.83969465648855,-37.13740458015267,563.6697247706422,-34.22018348623853,-9.26605504587156,,
1760476425.0352256,0,-0.5322265625,0.12481689453125,0.12548828125,9.427480916030534,-148.51908396946564,-43.0,352.2935779816514,-34.03669724770642,-8.990825688073395,,
1760476425.0564697,0,-0.5321044921875,0.1248779296875,0.12548828125,9.419847328244275,-111.38931297709924,-31.27480916030534,375.7798165137615,-33.94495412844037,-9.174311926605505,,
1760476425.088044,0,-0.53192138671875,0.12481689453125,0.12530517578125,9.404580152671755,-185.64885496183206,-44.954198473282446,305.3211009174312,-34.403669724770644,-8.990825688073395,,
1760476425.0987163,0,-0.53179931640625,0.1248779296875,0.12542724609375,9.419847328244275,-119.20610687022901,-44.954198473282446,822.0183486238533,-34.67889908256881,-9.26605504587156,,
1760476425.1199958,0,-0.5316162109375,0.12481689453125,0.12542724609375,9.427480916030534,-173.9236641221374,-46.908396946564885,305.3211009174312,-35.5045871559633,-8.1651376146789,,
1760476425.1518385,0,-0.531494140625,0.12481689453125,0.12548828125,9.419847328244275,-166.10687022900763,-48.86259541984733,915.9633027522937,-34.95412844036697,-9.174311926605505,,
1760476425.1624873,0,-0.53131103515625,0.124755859375,0.12548828125,9.412213740458014,-195.4198473282443,-66.45038167938931,775.045871559633,-33.85321100917431,-8.89908256880734,,
1760476425.1838377,0,-0.53118896484375,0.1248779296875,0.12548828125,9.412213740458014,-168.06106870229007,-43.0,704.5871559633028,-34.03669724770642,-9.724770642201836,,
1760476425.1945958,0,-0.531005859375,0.12481689453125,0.12548828125,9.427480916030534,-152.42748091603053,-31.27480916030534,868.9908256880734,-34.403669724770644,-9.174311926605505,,
1760476425.2157578,0,-0.5308837890625,0.12493896484375,0.12548828125,9.404580152671755,-136.793893129771,-35.18320610687023,822.0183486238533,-33.85321100917431,-9.08256880733945,,
1760476425.2471366,0,-0.53070068359375,0.1248779296875,0.1253662109375,9.412213740458014,-140.70229007633588,-29.3206106870229,234.86238532110093,-34.03669724770642,-9.174311926605505,,
1760476425.2578468,0,-0.53057861328125,0.1248779296875,0.12530517578125,9.404580152671755,-171.96946564885496,-31.27480916030534,728.0733944954129,-34.58715596330275,-8.990825688073395,,
1760476425.27899,0,-0.5303955078125,0.1248779296875,0.12548828125,9.427480916030534,-132.8854961832061,-39.091603053435115,775.045871559633,-34.4954128440367,-8.256880733944955,,
1760476425.3107822,0,-0.5302734375,0.124755859375,0.1253662109375,9.419847328244275,-148.51908396946564,-99.67175572519083,822.0183486238533,-33.57798165137615,-9.357798165137615,,
1760476425.3214173,0,-0.53009033203125,0.12420654296875,0.12420654296875,9.435114503816793,-150.4732824427481,-35.18320610687023,-305.3211009174312,-34.862385321100916,-9.357798165137615,,
1760476425.3427877,0,-0.52996826171875,0.125,0.12603759765625,9.435114503816793,-166.10687022900763,-25.412213740458014,1902.3853211009175,-34.58715596330275,-9.541284403669724,,
1760476425.3535945,0,-0.52978515625,0.124755859375,0.12518310546875,9.412213740458014,-164.15267175572518,-25.412213740458014,2560.0,-34.12844036697248,-9.174311926605505,,
1760476425.3751602,0,-0.5296630859375,0.12481689453125,0.1256103515625,9.412213740458014,-119.20610687022901,-17.595419847328245,446.2385321100918,-34.31192660550459,-9.08256880733945,,
1760476425.406786,0,-0.52947998046875,0.1248779296875,0.12554931640625,9.419847328244275,-132.8854961832061,-33.229007633587784,775.045871559633,-34.12844036697248,-9.174311926605505,,
1760476425.4173977,0,-0.52935791015625,0.12481689453125,0.12542724609375,9.419847328244275,-142.65648854961833,-46.908396946564885,798.5321100917431,-34.403669724770644,-9.908256880733946,,
1760476425.4383972,0,-0.5291748046875,0.124755859375,0.1253662109375,9.412213740458014,-123.1145038167939,-33.229007633587784,610.6422018348624,-33.6697247706422,-9.08256880733945,,
1760476425.4700766,0,-0.529052734375,0.124755859375,0.12542724609375,9.412213740458014,-136.793893129771,-29.3206106870229,540.1834862385322,-34.95412844036697,-9.44954128440367,,
1760476425.480891,0,-0.52886962890625,0.12481689453125,0.12542724609375,9.396946564885496,-134.83969465648855,-35.18320610687023,798.5321100917431,-34.58715596330275,-9.08256880733945,,
1760476425.5030034,0,-0.52874755859375,0.1248779296875,0.12548828125,9.419847328244275,-170.01526717557252,-41.045801526717554,751.559633027523,-34.67889908256881,-8.990825688073395,,
1760476425.5138447,0,-0.528564453125,0.12481689453125,0.12530517578125,9.412213740458014,-166.10687022900763,-37.13740458015267,704.5871559633028,-34.58715596330275,-8.990825688073395,,
1760476425.5375738,0,-0.5284423828125,0.12481689453125,0.12548828125,9.404580152671755,-156.33587786259542,9.770992366412214,657.6146788990826,-33.94495412844037,-9.541284403669724,,
1760476425.5584009,0,-0.52825927734375,0.1248779296875,0.12554931640625,9.412213740458014,-158.29007633587787,-9.778625954198473,798.5321100917431,-34.67889908256881,-9.357798165137615,,
1760476425.5688,0,-0.52813720703125,0.12481689453125,0.12548828125,9.412213740458014,-170.01526717557252,0.0,422.7522935779817,-35.137614678899084,-8.715596330275229,,
1760476425.5895,0,-0.5279541015625,0.1248779296875,0.12548828125,9.396946564885496,-154.38167938931298,-52.770992366412216,751.559633027523,-34.22018348623853,-9.44954128440367,,
1760476425.5998838,0,-0.52783203125,0.1248779296875,0.1253662109375,9.404580152671755,-132.8854961832061,-31.27480916030534,446.2385321100918,-34.4954128440367,-9.174311926605505,,
1760476425.620676,0,-0.52764892578125,0.124755859375,0.12542724609375,9.419847328244275,-138.74809160305344,-52.770992366412216,681.1009174311927,-34.12844036697248,-9.174311926605505,,
1760476425.651569,0,-0.52752685546875,0.12493896484375,0.12554931640625,9.435114503816793,-140.70229007633588,-23.458015267175572,352.2935779816514,-34.31192660550459,-9.541284403669724,,
1760476425.6620178,0,-0.52734375,0.12481689453125,0.12542724609375,9.404580152671755,-156.33587786259542,-31.27480916030534,469.72477064220186,-34.22018348623853,-9.174311926605505,,
1760476425.682668,0,-0.5272216796875,0.124755859375,0.12548828125,9.419847328244275,-183.6946564885496,-41.045801526717554,775.045871559633,-35.22935779816514,-8.990825688073395,,
1760476425.7135599,0,-0.52703857421875,0.12481689453125,0.12548828125,9.427480916030534,-162.19847328244273,-50.81679389312977,516.6972477064221,-34.31192660550459,-8.89908256880734,,
1760476425.723966,0,-0.52691650390625,0.1248779296875,0.12554931640625,9.412213740458014,-166.10687022900763,-43.0,634.1284403669725,-33.76146788990826,-9.44954128440367,,
1760476425.744583,0,-0.5267333984375,0.124755859375,0.12542724609375,9.412213740458014,-140.70229007633588,-33.229007633587784,540.1834862385322,-34.4954128440367,-8.990825688073395,,
1760476425.7549374,0,-0.526611328125,0.122802734375,0.126220703125,9.419847328244275,-173.9236641221374,-19.549618320610687,-1784.8623853211009,-34.12844036697248,-9.08256880733945,,
1760476425.7858095,0,-0.52642822265625,0.12286376953125,0.12359619140625,9.435114503816793,-105.53435114503817,-87.9618320610687,2325.412844036697,-34.67889908256881,-9.908256880733946,,
1760476425.8166802,0,-0.52630615234375,0.1253662109375,0.1263427734375,9.511450381679388,129.0,-119.17557251908397,0.45871559633027525,-33.76146788990826,-9.357798165137615,,
1760476425.8270092,0,-0.526123046875,0.127197265625,0.1259765625,9.412213740458014,-152.42748091603053,-33.229007633587784,2888.7155963302753,-34.67889908256881,-9.63302752293578,,
1760476425.847589,0,-0.5260009765625,0.1248779296875,0.12548828125,9.427480916030534,-140.70229007633588,-33.229007633587784,516.6972477064221,-34.403669724770644,-9.357798165137615,,
1760476425.8784246,0,-0.52581787109375,0.1248779296875,0.12542724609375,9.419847328244275,-160.24427480916032,-50.81679389312977,704.5871559633028,-33.39449541284404,-9.724770642201836,,
1760476425.8888335,0,-0.52569580078125,0.124755859375,0.12548828125,9.419847328244275,-115.29770992366412,-0.007633587786259542,563.6697247706422,-34.03669724770642,-9.63302752293578,,
1760476425.9095633,0,-0.5255126953125,0.1246337890625,0.12548828125,9.412213740458014,-156.33587786259542,-33.229007633587784,704.5871559633028,-34.403669724770644,-9.44954128440367,,
1760476425.9199808,0,-0.525390625,0.124755859375,0.12548828125,9.419847328244275,-162.19847328244273,-33.229007633587784,822.0183486238533,-34.403669724770644,-9.08256880733945,,
1760476425.940674,0,-0.52520751953125,0.124755859375,0.12548828125,9.404580152671755,-128.9770992366412,-25.412213740458014,563.6697247706422,-33.94495412844037,-9.44954128440367,,
1760476425.971571,0,-0.52508544921875,0.1248779296875,0.12554931640625,9.427480916030534,-148.51908396946564,7.816793893129771,516.6972477064221,-33.85321100917431,-9.63302752293578,,
1760476425.983381,0,-0.52490234375,0.124755859375,0.1253662109375,9.419847328244275,-158.29007633587787,-41.045801526717554,751.559633027523,-33.48623853211009,-9.81651376146789,,
1760476426.0042539,0,-0.5247802734375,0.12469482421875,0.12554931640625,9.419847328244275,-162.19847328244273,-35.18320610687023,587.1559633027523,-33.57798165137615,-9.724770642201836,,
1760476426.0167692,0,-0.52459716796875,0.1248779296875,0.12554931640625,9.396946564885496,-144.61068702290078,-33.229007633587784,352.2935779816514,-34.58715596330275,-9.174311926605505,,
1760476426.037511,0,-0.52447509765625,0.12481689453125,0.12542724609375,9.396946564885496,-117.25190839694656,-5.870229007633588,751.559633027523,-34.403669724770644,-9.357798165137615,,
1760476426.070496,0,-0.5242919921875,0.12481689453125,0.12554931640625,9.419847328244275,-160.24427480916032,-44.954198473282446,352.2935779816514,-34.95412844036697,-10.0,,
1760476426.1019192,0,-0.524169921875,0.12469482421875,0.12548828125,9.419847328244275,-148.51908396946564,-29.3206106870229,610.6422018348624,-33.85321100917431,-9.44954128440367,,
1760476426.1133919,0,-0.52398681640625,0.124755859375,0.12554931640625,9.427480916030534,-175.87786259541986,-29.3206106870229,422.7522935779817,-34.22018348623853,-9.908256880733946,,
1760476426.1295812,0,-0.52386474609375,0.12493896484375,0.12548828125,9.419847328244275,-148.51908396946564,-29.3206106870229,681.1009174311927,-33.94495412844037,-9.63302752293578,,
1760476426.1409957,0,-0.523681640625,0.12481689453125,0.1253662109375,9.404580152671755,-150.4732824427481,-11.732824427480915,516.6972477064221,-34.03669724770642,-9.174311926605505,,
1760476426.1633122,0,-0.5235595703125,0.124755859375,0.12567138671875,9.412213740458014,-127.02290076335878,-19.549618320610687,775.045871559633,-33.85321100917431,-10.18348623853211,,
1760476426.1737988,0,-0.52337646484375,0.1248779296875,0.12548828125,9.419847328244275,-144.61068702290078,15.633587786259541,681.1009174311927,-33.76146788990826,-9.63302752293578,,
1760476426.196579,0,-0.52325439453125,0.12481689453125,0.12530517578125,9.419847328244275,-99.66412213740458,-27.366412213740457,657.6146788990826,-34.03669724770642,-10.0,,
1760476426.2081351,0,-0.5230712890625,0.1248779296875,0.12542724609375,9.419847328244275,-140.70229007633588,-37.13740458015267,798.5321100917431,-33.94495412844037,-10.0,,
1760476426.228977,0,-0.52294921875,0.12481689453125,0.12542724609375,9.412213740458014,-127.02290076335878,-19.549618320610687,704.5871559633028,-34.12844036697248,-9.908256880733946,,
1760476426.2625318,0,-0.52276611328125,0.125,0.12554931640625,9.412213740458014,-142.65648854961833,-27.366412213740457,704.5871559633028,-34.31192660550459,-10.18348623853211,,
1760476426.2730248,0,-0.52264404296875,0.12493896484375,0.1253662109375,9.419847328244275,-152.42748091603053,-35.18320610687023,704.5871559633028,-33.6697247706422,-9.44954128440367,,
1760476426.2945423,0,-0.5224609375,0.12481689453125,0.12548828125,9.419847328244275,-166.10687022900763,-27.366412213740457,516.6972477064221,-33.6697247706422,-9.908256880733946,,
1760476426.3328946,0,-0.5223388671875,0.12481689453125,0.12542724609375,9.419847328244275,-158.29007633587787,-39.091603053435115,563.6697247706422,-33.6697247706422,-9.908256880733946,,
1760476426.3433268,0,-0.52215576171875,0.1248779296875,0.12548828125,9.404580152671755,-140.70229007633588,-13.687022900763358,681.1009174311927,-33.39449541284404,-9.63302752293578,,
1760476426.3537948,0,-0.52203369140625,0.12469482421875,0.12542724609375,9.419847328244275,-148.51908396946564,-37.13740458015267,587.1559633027523,-33.85321100917431,-10.275229357798166,,
1760476426.390081,0,-0.5218505859375,0.12481689453125,0.12542724609375,9.412213740458014,-119.20610687022901,-5.870229007633588,375.7798165137615,-33.76146788990826,-9.81651376146789,,
1760476426.4018393,0,-0.521728515625,0.12481689453125,0.12542724609375,9.435114503816793,-142.65648854961833,-27.366412213740457,469.72477064220186,-33.48623853211009,-10.0,,
1760476426.418914,0,-0.52154541015625,0.12481689453125,0.12530517578125,9.389312977099237,-154.38167938931298,-25.412213740458014,845.5045871559633,-33.57798165137615,-10.18348623853211,,
1760476426.4293828,0,-0.52142333984375,0.12493896484375,0.1253662109375,9.412213740458014,-138.74809160305344,-15.641221374045802,892.4770642201836,-33.39449541284404,-10.18348623853211,,
1760476426.4506164,0,-0.521240234375,0.1248779296875,0.12548828125,9.404580152671755,-150.4732824427481,7.816793893129771,681.1009174311927,-33.30275229357798,-10.0,,
1760476426.4610953,0,-0.5211181640625,0.12481689453125,0.12542724609375,9.419847328244275,-154.38167938931298,-29.3206106870229,728.0733944954129,-34.22018348623853,-9.724770642201836,,
1760476426.4921675,0,-0.52093505859375,0.1248779296875,0.12542724609375,9.427480916030534,-115.29770992366412,-35.18320610687023,493.2110091743119,-33.02752293577982,-9.81651376146789,,
1760476426.5129907,0,-0.52081298828125,0.12481689453125,0.12542724609375,9.404580152671755,-148.51908396946564,5.862595419847328,634.1284403669725,-33.11926605504587,-10.733944954128441,,
1760476426.5234587,0,-0.5206298828125,0.1248779296875,0.12548828125,9.427480916030534,-109.43511450381679,-27.366412213740457,587.1559633027523,-32.93577981651376,-9.908256880733946,,
1760476426.5441349,0,-0.5205078125,0.1248779296875,0.12554931640625,9.419847328244275,-148.51908396946564,-48.86259541984733,704.5871559633028,-33.57798165137615,-9.44954128440367,,
1760476426.575619,0,-0.52032470703125,0.12481689453125,0.12548828125,9.404580152671755,-134.83969465648855,-21.50381679389313,822.0183486238533,-33.94495412844037,-9.63302752293578,,
1760476426.5863092,0,-0.52020263671875,0.12493896484375,0.1253662109375,9.419847328244275,-138.74809160305344,-62.541984732824424,915.9633027522937,-32.75229357798165,-9.81651376146789,,
1760476426.607323,0,-0.52001953125,0.1248779296875,0.12554931640625,9.412213740458014,-175.87786259541986,-52.770992366412216,446.2385321100918,-32.84403669724771,-9.44954128440367,,
1760476426.6179166,0,-0.5198974609375,0.1248779296875,0.1256103515625,9.427480916030534,-123.1145038167939,-39.091603053435115,704.5871559633028,-33.11926605504587,-9.63302752293578,,
