timestamp,packet_id,accel_x,accel_y,accel_z,gyro_x,gyro_y,gyro_z,mag_x,mag_y,mag_z,battery,temperature
1760476678.3190303,0,1.446533203125,0.1243896484375,0.12469482421875,9.435114503816793,-158.29007633587787,-13.687022900763358,822.0183486238533,-40.642201834862384,4.220183486238533,,
1760476678.3407495,0,1.4466552734375,0.12445068359375,0.1246337890625,9.427480916030534,-170.01526717557252,-31.27480916030534,516.6972477064221,-40.825688073394495,4.220183486238533,,
1760476678.3513644,0,1.44683837890625,0.1243896484375,0.124755859375,9.412213740458014,-164.15267175572518,-31.27480916030534,751.559633027523,-41.10091743119266,4.495412844036697,,
1760476678.3726418,0,1.44696044921875,0.12432861328125,0.12469482421875,9.435114503816793,-134.83969465648855,-29.3206106870229,540.1834862385322,-40.825688073394495,4.495412844036697,,
1760476678.404307,0,1.4471435546875,0.12451171875,0.125,9.427480916030534,-128.9770992366412,-31.27480916030534,422.7522935779817,-41.559633027522935,4.4036697247706424,,
1760476678.4150147,0,1.447265625,0.1243896484375,0.124755859375,9.427480916030534,-132.8854961832061,-37.13740458015267,634.1284403669725,-40.550458715596335,3.9449541284403673,,
1760476678.4363415,0,1.44744873046875,0.12445068359375,0.1246337890625,9.419847328244275,-121.16030534351145,-35.18320610687023,422.7522935779817,-41.00917431192661,4.770642201834862,,
1760476678.4471135,0,1.44757080078125,0.12445068359375,0.124755859375,9.412213740458014,-148.51908396946564,-39.091603053435115,822.0183486238533,-41.10091743119266,4.220183486238533,,
1760476678.46833,0,1.44775390625,0.12432861328125,0.1246337890625,9.427480916030534,-168.06106870229007,-35.18320610687023,516.6972477064221,-41.00917431192661,4.3119266055045875,,
1760476678.4997663,0,1.4478759765625,0.12451171875,0.124755859375,9.412213740458014,-148.51908396946564,-35.18320610687023,751.559633027523,-41.467889908256886,4.4036697247706424,,
1760476678.5102975,0,1.44805908203125,0.12451171875,0.12481689453125,9.435114503816793,-144.61068702290078,-15.641221374045802,798.5321100917431,-40.825688073394495,4.4036697247706424,,
1760476678.5313087,0,1.44818115234375,0.1243896484375,0.12469482421875,9.427480916030534,-170.01526717557252,-33.229007633587784,681.1009174311927,-41.19266055045871,3.761467889908257,,
1760476678.563074,0,1.4483642578125,0.12451171875,0.12469482421875,9.427480916030534,-144.61068702290078,-44.954198473282446,798.5321100917431,-41.10091743119266,3.486238532110092,,
1760476678.5737944,0,1.448486328125,0.12451171875,0.124755859375,9.427480916030534,-160.24427480916032,-5.870229007633588,775.045871559633,-41.10091743119266,4.220183486238533,,
1760476678.594964,0,1.44866943359375,0.1243896484375,0.124755859375,9.435114503816793,-121.16030534351145,-60.587786259541986,587.1559633027523,-41.37614678899082,4.954128440366973,,
1760476678.6268284,0,1.44879150390625,0.1243896484375,0.12469482421875,9.435114503816793,-117.25190839694656,-15.641221374045802,234.86238532110093,-41.8348623853211,4.587155963302752,,
1760476678.6375878,0,1.448974609375,0.12432861328125,0.12457275390625,9.427480916030534,-134.83969465648855,-39.091603053435115,328.8073394495413,-41.19266055045871,4.220183486238533,,
1760476678.6590195,0,1.4490966796875,0.1243896484375,0.12469482421875,9.442748091603054,-164.15267175572518,-46.908396946564885,728.0733944954129,-40.825688073394495,4.220183486238533,,
1760476678.6909335,0,1.44927978515625,0.12451171875,0.1246337890625,9.435114503816793,-146.5648854961832,-9.778625954198473,493.2110091743119,-41.00917431192661,3.853211009174312,,
1760476678.7016995,0,1.44940185546875,0.12445068359375,0.124755859375,9.427480916030534,-148.51908396946564,-9.778625954198473,493.2110091743119,-41.19266055045871,4.220183486238533,,
1760476678.7230737,0,1.4495849609375,0.12457275390625,0.12481689453125,9.435114503816793,-146.5648854961832,-44.954198473282446,798.5321100917431,-41.19266055045871,4.770642201834862,,
1760476678.7338748,0,1.44970703125,0.12445068359375,0.12481689453125,9.435114503816793,-144.61068702290078,-50.81679389312977,587.1559633027523,-41.19266055045871,4.4036697247706424,,
1760476678.7552447,0,1.44989013671875,0.12445068359375,0.12469482421875,9.412213740458014,-136.793893129771,-19.549618320610687,892.4770642201836,-41.467889908256886,4.128440366972478,,
1760476678.7659652,0,1.45001220703125,0.1243896484375,0.124755859375,9.419847328244275,-142.65648854961833,-33.229007633587784,305.3211009174312,-41.00917431192661,3.761467889908257,,
1760476678.787337,0,1.4501953125,0.12445068359375,0.12469482421875,9.427480916030534,-152.42748091603053,-39.091603053435115,657.6146788990826,-40.73394495412844,4.036697247706423,,
1760476678.8192928,0,1.4503173828125,0.12451171875,0.12481689453125,9.404580152671755,-119.20610687022901,-43.0,493.2110091743119,-41.467889908256886,4.3119266055045875,,
1760476678.8300426,0,1.45050048828125,0.12451171875,0.124755859375,9.412213740458014,-130.93129770992365,-48.86259541984733,634.1284403669725,-40.73394495412844,4.220183486238533,,
1760476678.8514795,0,1.45062255859375,0.12420654296875,0.12457275390625,9.427480916030534,-181.74045801526717,-68.40458015267176,704.5871559633028,-41.284403669724774,4.678899082568807,,
1760476678.8622367,0,1.4508056640625,0.1243896484375,0.12469482421875,9.435114503816793,-132.8854961832061,-43.0,915.9633027522937,-41.19266055045871,4.587155963302752,,
1760476678.8834693,0,1.450927734375,0.12445068359375,0.1246337890625,9.450381679389313,-179.78625954198472,-82.08396946564885,610.6422018348624,-40.36697247706422,4.587155963302752,,
1760476678.9049058,0,1.45111083984375,0.12451171875,0.12469482421875,9.419847328244275,-203.23664122137404,-35.18320610687023,657.6146788990826,-41.00917431192661,3.853211009174312,,
1760476678.9156325,0,1.45123291015625,0.12432861328125,0.124755859375,9.412213740458014,-150.4732824427481,-31.27480916030534,516.6972477064221,-40.642201834862384,4.036697247706423,,
1760476678.9370098,0,1.451416015625,0.1243896484375,0.124755859375,9.419847328244275,-171.96946564885496,3.9083969465648853,657.6146788990826,-41.10091743119266,4.587155963302752,,
1760476678.9685416,0,1.4515380859375,0.1243896484375,0.124755859375,9.419847328244275,-152.42748091603053,-31.27480916030534,469.72477064220186,-40.825688073394495,4.3119266055045875,,
1760476678.9790483,0,1.45172119140625,0.12432861328125,0.12469482421875,9.442748091603054,-138.74809160305344,-35.18320610687023,446.2385321100918,-40.73394495412844,4.128440366972478,,
1760476679.0003576,0,1.45184326171875,0.12451171875,0.124755859375,9.427480916030534,-136.793893129771,-74.26717557251908,610.6422018348624,-41.467889908256886,4.495412844036697,,
1760476679.0113325,0,1.4520263671875,0.12445068359375,0.12457275390625,9.435114503816793,-158.29007633587787,-68.40458015267176,704.5871559633028,-40.825688073394495,4.220183486238533,,
1760476679.032584,0,1.4521484375,0.12432861328125,0.12469482421875,9.419847328244275,-158.29007633587787,-62.541984732824424,587.1559633027523,-41.00917431192661,4.220183486238533,,
1760476679.0644574,0,1.45233154296875,0.12445068359375,0.124755859375,9.412213740458014,-150.4732824427481,-35.18320610687023,563.6697247706422,-40.45871559633027,4.495412844036697,,
1760476679.0752947,0,1.45245361328125,0.1243896484375,0.1246337890625,9.435114503816793,-154.38167938931298,-44.954198473282446,516.6972477064221,-40.91743119266055,4.495412844036697,,
1760476679.0966241,0,1.45263671875,0.1243896484375,0.12469482421875,9.427480916030534,-160.24427480916032,-33.229007633587784,728.0733944954129,-40.825688073394495,3.853211009174312,,
1760476679.1280637,0,1.4527587890625,0.12445068359375,0.124755859375,9.412213740458014,-156.33587786259542,-23.458015267175572,493.2110091743119,-41.10091743119266,3.3944954128440368,,
1760476679.1388557,0,1.45294189453125,0.12445068359375,0.1246337890625,9.419847328244275,-154.38167938931298,-56.6793893129771,540.1834862385322,-40.73394495412844,4.495412844036697,,
1760476679.1600919,0,1.45306396484375,0.12432861328125,0.12481689453125,9.404580152671755,-156.33587786259542,-17.595419847328245,681.1009174311927,-41.19266055045871,4.220183486238533,,
1760476679.1920447,0,1.4532470703125,0.12445068359375,0.12469482421875,9.435114503816793,-168.06106870229007,-19.549618320610687,540.1834862385322,-41.00917431192661,4.3119266055045875,,
1760476679.2028594,0,1.453369140625,0.12451171875,0.12469482421875,9.404580152671755,-128.9770992366412,-29.3206106870229,563.6697247706422,-40.825688073394495,4.587155963302752,,
1760476679.2242725,0,1.45355224609375,0.1243896484375,0.12469482421875,9.435114503816793,-146.5648854961832,-19.549618320610687,751.559633027523,-41.284403669724774,3.853211009174312,,
1760476679.2560906,0,1.45367431640625,0.12451171875,0.12481689453125,9.435114503816793,-144.61068702290078,-56.6793893129771,328.8073394495413,-40.73394495412844,4.587155963302752,,
1760476679.2668924,0,1.453857421875,0.12432861328125,0.12469482421875,9.419847328244275,-128.9770992366412,-35.18320610687023,634.1284403669725,-40.825688073394495,3.853211009174312,,
1760476679.288173,0,1.4539794921875,0.1243896484375,0.12469482421875,9.435114503816793,-136.793893129771,-39.091603053435115,681.1009174311927,-41.10091743119266,4.220183486238533,,
1760476679.2986782,0,1.45416259765625,0.124267578125,0.12469482421875,9.442748091603054,-162.19847328244273,-35.18320610687023,540.1834862385322,-40.91743119266055,4.3119266055045875,,
1760476679.3195326,0,1.45428466796875,0.12445068359375,0.124755859375,9.412213740458014,-164.15267175572518,-17.595419847328245,728.0733944954129,-41.467889908256886,3.9449541284403673,,
1760476679.330219,0,1.4544677734375,0.12451171875,0.1246337890625,9.419847328244275,-115.29770992366412,-48.86259541984733,234.86238532110093,-40.91743119266055,4.3119266055045875,,
1760476679.3512514,0,1.45458984375,0.1243896484375,0.124755859375,9.427480916030534,-168.06106870229007,-7.824427480916031,540.1834862385322,-41.10091743119266,3.9449541284403673,,
1760476679.38288,0,1.45477294921875,0.12451171875,0.124755859375,9.419847328244275,-150.4732824427481,-15.641221374045802,798.5321100917431,-41.10091743119266,4.3119266055045875,,
1760476679.3936024,0,1.45489501953125,0.12451171875,0.12469482421875,9.419847328244275,-140.70229007633588,-21.50381679389313,563.6697247706422,-41.00917431192661,4.3119266055045875,,
1760476679.4148507,0,1.455078125,0.1243896484375,0.124755859375,9.419847328244275,-146.5648854961832,-39.091603053435115,634.1284403669725,-41.559633027522935,4.862385321100918,,
1760476679.446503,0,1.4552001953125,0.12445068359375,0.124755859375,9.427480916030534,-144.61068702290078,-68.40458015267176,610.6422018348624,-40.642201834862384,4.495412844036697,,
1760476679.457297,0,1.45538330078125,0.1243896484375,0.12481689453125,9.419847328244275,-136.793893129771,-31.27480916030534,962.9357798165138,-40.642201834862384,3.9449541284403673,,
1760476679.4681482,0,1.45550537109375,0.12451171875,0.1246337890625,9.427480916030534,-148.51908396946564,-44.954198473282446,751.559633027523,-40.550458715596335,4.3119266055045875,,
1760476679.4789252,0,1.4556884765625,0.12451171875,0.124755859375,9.427480916030534,-170.01526717557252,-23.458015267175572,681.1009174311927,-41.284403669724774,4.4036697247706424,,
1760476679.500104,0,1.455810546875,0.1243896484375,0.124755859375,9.412213740458014,-152.42748091603053,-15.641221374045802,728.0733944954129,-40.91743119266055,4.128440366972478,,
1760476679.5321066,0,1.45599365234375,0.12451171875,0.1246337890625,9.412213740458014,-154.38167938931298,-23.458015267175572,751.559633027523,-41.00917431192661,4.770642201834862,,
1760476679.5426333,0,1.45611572265625,0.12451171875,0.1246337890625,9.435114503816793,-170.01526717557252,-33.229007633587784,939.4495412844037,-40.550458715596335,4.220183486238533,,
1760476679.563865,0,1.456298828125,0.12445068359375,0.124755859375,9.435114503816793,-128.9770992366412,-31.27480916030534,610.6422018348624,-40.825688073394495,4.4036697247706424,,
1760476679.595851,0,1.4564208984375,0.12451171875,0.12469482421875,9.419847328244275,-123.1145038167939,-9.778625954198473,704.5871559633028,-41.37614678899082,4.128440366972478,,
1760476679.6066277,0,1.45660400390625,0.12445068359375,0.12469482421875,9.435114503816793,-115.29770992366412,-35.18320610687023,681.1009174311927,-41.284403669724774,4.220183486238533,,
1760476679.6281679,0,1.45672607421875,0.1243896484375,0.12469482421875,9.412213740458014,-136.793893129771,-11.732824427480915,563.6697247706422,-41.37614678899082,4.220183486238533,,
1760476679.6387982,0,1.4569091796875,0.1243896484375,0.124755859375,9.442748091603054,-125.06870229007633,-37.13740458015267,375.7798165137615,-41.284403669724774,4.954128440366973,,
1760476679.6598814,0,1.45703125,0.1243896484375,0.124755859375,9.427480916030534,-152.42748091603053,-54.725190839694655,563.6697247706422,-41.284403669724774,5.137614678899083,,
1760476679.6918688,0,1.45721435546875,0.1243896484375,0.12469482421875,9.435114503816793,-136.793893129771,-19.549618320610687,939.4495412844037,-41.284403669724774,4.128440366972478,,
1760476679.7026422,0,1.45733642578125,0.1243896484375,0.1248779296875,9.419847328244275,-152.42748091603053,-62.541984732824424,563.6697247706422,-40.550458715596335,4.128440366972478,,
1760476679.723941,0,1.45751953125,0.12451171875,0.1248779296875,9.435114503816793,-150.4732824427481,-23.458015267175572,681.1009174311927,-40.91743119266055,4.036697247706423,,
1760476679.7558484,0,1.4576416015625,0.12445068359375,0.12469482421875,9.450381679389313,-168.06106870229007,-37.13740458015267,845.5045871559633,-40.91743119266055,3.9449541284403673,,
1760476679.7665727,0,1.45782470703125,0.1243896484375,0.12481689453125,9.412213740458014,-154.38167938931298,1.9541984732824427,446.2385321100918,-41.00917431192661,4.770642201834862,,
1760476679.7880266,0,1.45794677734375,0.12451171875,0.12469482421875,9.419847328244275,-134.83969465648855,-37.13740458015267,657.6146788990826,-40.642201834862384,4.128440366972478,,
1760476679.8199193,0,1.4581298828125,0.12432861328125,0.1246337890625,9.419847328244275,-150.4732824427481,-56.6793893129771,704.5871559633028,-41.10091743119266,4.3119266055045875,,
1760476679.8306313,0,1.458251953125,0.12445068359375,0.124755859375,9.419847328244275,-148.51908396946564,-66.45038167938931,751.559633027523,-40.825688073394495,3.761467889908257,,
1760476679.8520634,0,1.45843505859375,0.12445068359375,0.12481689453125,9.435114503816793,-138.74809160305344,-33.229007633587784,399.26605504587155,-41.10091743119266,4.4036697247706424,,
1760476679.884057,0,1.45855712890625,0.12445068359375,0.12481689453125,9.419847328244275,-130.93129770992365,-54.725190839694655,728.0733944954129,-41.19266055045871,4.220183486238533,,
1760476679.8948495,0,1.458740234375,0.12445068359375,0.124755859375,9.435114503816793,-164.15267175572518,-66.45038167938931,446.2385321100918,-41.74311926605505,4.862385321100918,,
1760476679.9055948,0,1.4588623046875,0.12451171875,0.124755859375,9.427480916030534,-148.51908396946564,-19.549618320610687,657.6146788990826,-41.10091743119266,4.036697247706423,,
1760476679.9164197,0,1.45904541015625,0.12445068359375,0.124755859375,9.435114503816793,-142.65648854961833,-29.3206106870229,563.6697247706422,-40.45871559633027,4.128440366972478,,
1760476679.9481316,0,1.45916748046875,0.1243896484375,0.124755859375,9.427480916030534,-127.02290076335878,-52.770992366412216,422.7522935779817,-41.19266055045871,4.495412844036697,,
1760476679.9586072,0,1.4593505859375,0.12445068359375,0.124755859375,9.427480916030534,-136.793893129771,-54.725190839694655,728.0733944954129,-40.73394495412844,4.4036697247706424,,
1760476679.979956,0,1.45947265625,0.12451171875,0.1248779296875,9.419847328244275,-130.93129770992365,-25.412213740458014,681.1009174311927,-41.559633027522935,4.954128440366973,,
1760476680.0010781,0,1.45965576171875,0.12445068359375,0.124755859375,9.419847328244275,-128.9770992366412,-33.229007633587784,587.1559633027523,-40.73394495412844,4.3119266055045875,,
1760476680.0120347,0,1.45977783203125,0.12457275390625,0.12481689453125,9.427480916030534,-130.93129770992365,-9.778625954198473,563.6697247706422,-40.45871559633027,4.862385321100918,,
1760476680.0332131,0,1.4599609375,0.12451171875,0.124755859375,9.412213740458014,-150.4732824427481,-13.687022900763358,422.7522935779817,-41.00917431192661,4.128440366972478,,
1760476680.0649323,0,1.4600830078125,0.12451171875,0.124755859375,9.427480916030534,-144.61068702290078,-33.229007633587784,704.5871559633028,-40.36697247706422,3.9449541284403673,,
1760476680.07573,0,1.46026611328125,0.12451171875,0.12469482421875,9.435114503816793,-173.9236641221374,-5.870229007633588,281.8348623853211,-40.642201834862384,4.3119266055045875,,
1760476680.0970354,0,1.46038818359375,0.12445068359375,0.124755859375,9.427480916030534,-162.19847328244273,-35.18320610687023,587.1559633027523,-41.00917431192661,4.036697247706423,,
1760476680.1079106,0,1.4605712890625,0.12451171875,0.12457275390625,9.427480916030534,-166.10687022900763,-27.366412213740457,540.1834862385322,-40.825688073394495,4.495412844036697,,
1760476680.1291895,0,1.460693359375,0.12445068359375,0.124755859375,9.427480916030534,-150.4732824427481,-1.9618320610687023,540.1834862385322,-41.10091743119266,4.862385321100918,,
1760476680.161079,0,1.46087646484375,0.12432861328125,0.124755859375,9.412213740458014,-134.83969465648855,-27.366412213740457,610.6422018348624,-40.73394495412844,4.128440366972478,,
1760476680.1718817,0,1.46099853515625,0.12451171875,0.124755859375,9.435114503816793,-109.43511450381679,-48.86259541984733,516.6972477064221,-41.284403669724774,3.486238532110092,,
1760476680.1930337,0,1.461181640625,0.1243896484375,0.12469482421875,9.412213740458014,-160.24427480916032,-52.770992366412216,493.2110091743119,-40.73394495412844,4.128440366972478,,
1760476680.2040555,0,1.4613037109375,0.1243896484375,0.1246337890625,9.435114503816793,-136.793893129771,-41.045801526717554,469.72477064220186,-40.91743119266055,4.4036697247706424,,
1760476680.2253926,0,1.46148681640625,0.12445068359375,0.12469482421875,9.442748091603054,-140.70229007633588,-46.908396946564885,657.6146788990826,-41.10091743119266,4.678899082568807,,
1760476680.2362645,0,1.46160888671875,0.1243896484375,0.12469482421875,9.427480916030534,-171.96946564885496,-13.687022900763358,610.6422018348624,-40.825688073394495,4.4036697247706424,,
1760476680.2681131,0,1.4617919921875,0.12445068359375,0.12469482421875,9.427480916030534,-144.61068702290078,-21.50381679389313,822.0183486238533,-41.37614678899082,4.4036697247706424,,
1760476680.3000414,0,1.4619140625,0.12432861328125,0.1246337890625,9.427480916030534,-152.42748091603053,-5.870229007633588,446.2385321100918,-40.36697247706422,3.853211009174312,,
1760476680.3108647,0,1.46209716796875,0.12445068359375,0.124755859375,9.427480916030534,-140.70229007633588,-56.6793893129771,634.1284403669725,-41.10091743119266,3.9449541284403673,,
1760476680.3321006,0,1.46221923828125,0.12445068359375,0.12469482421875,9.419847328244275,-175.87786259541986,-27.366412213740457,775.045871559633,-41.00917431192661,4.495412844036697,,
1760476680.3531904,0,1.46240234375,0.12451171875,0.124755859375,9.435114503816793,-125.06870229007633,-23.458015267175572,962.9357798165138,-41.19266055045871,4.954128440366973,,
1760476680.3639407,0,1.4625244140625,0.1243896484375,0.12469482421875,9.419847328244275,-130.93129770992365,-39.091603053435115,587.1559633027523,-40.91743119266055,4.3119266055045875,,
1760476680.3853447,0,1.46270751953125,0.12445068359375,0.12481689453125,9.419847328244275,-144.61068702290078,-37.13740458015267,399.26605504587155,-40.825688073394495,4.678899082568807,,
1760476680.3962271,0,1.46282958984375,0.12451171875,0.12469482421875,9.427480916030534,-170.01526717557252,-33.229007633587784,798.5321100917431,-41.284403669724774,4.220183486238533,,
1760476680.4282224,0,1.4630126953125,0.12445068359375,0.124755859375,9.419847328244275,-136.793893129771,-43.0,892.4770642201836,-40.091743119266056,4.220183486238533,,
1760476680.4601767,0,1.463134765625,0.12445068359375,0.12469482421875,9.419847328244275,-160.24427480916032,5.862595419847328,587.1559633027523,-41.74311926605505,4.036697247706423,,
1760476680.470952,0,1.46331787109375,0.1243896484375,0.1246337890625,9.404580152671755,-136.793893129771,-37.13740458015267,540.1834862385322,-41.284403669724774,4.495412844036697,,
1760476680.4929,0,1.46343994140625,0.12445068359375,0.124755859375,9.435114503816793,-113.34351145038168,-11.732824427480915,422.7522935779817,-40.91743119266055,4.4036697247706424,,
1760476680.5033453,0,1.463623046875,0.12445068359375,0.1246337890625,9.427480916030534,-152.42748091603053,-25.412213740458014,540.1834862385322,-41.19266055045871,4.4036697247706424,,
1760476680.52441,0,1.4637451171875,0.12445068359375,0.124755859375,9.419847328244275,-158.29007633587787,-46.908396946564885,704.5871559633028,-41.10091743119266,3.669724770642202,,
1760476680.5461102,0,1.46392822265625,0.12445068359375,0.12469482421875,9.435114503816793,-138.74809160305344,-50.81679389312977,657.6146788990826,-41.284403669724774,4.036697247706423,,
1760476680.556635,0,1.46405029296875,0.12445068359375,0.1246337890625,9.435114503816793,-128.9770992366412,-13.687022900763358,446.2385321100918,-40.36697247706422,4.678899082568807,,
1760476680.5884404,0,1.4642333984375,0.12445068359375,0.1246337890625,9.404580152671755,-146.5648854961832,-13.687022900763358,563.6697247706422,-41.467889908256886,4.220183486238533,,
1760476680.5999262,0,1.46435546875,0.12445068359375,0.124755859375,9.427480916030534,-127.02290076335878,-48.86259541984733,798.5321100917431,-41.284403669724774,4.954128440366973,,
1760476680.6207316,0,1.46453857421875,0.12445068359375,0.12481689453125,9.419847328244275,-140.70229007633588,-19.549618320610687,352.2935779816514,-41.467889908256886,4.220183486238533,,
1760476680.6525126,0,1.46466064453125,0.12445068359375,0.12457275390625,9.427480916030534,-168.06106870229007,-43.0,681.1009174311927,-41.00917431192661,4.4036697247706424,,
1760476680.6640098,0,1.46484375,0.1243896484375,0.12469482421875,9.412213740458014,-119.20610687022901,-27.366412213740457,328.8073394495413,-40.825688073394495,4.587155963302752,,
1760476680.6847978,0,1.4649658203125,0.12451171875,0.1246337890625,9.427480916030534,-160.24427480916032,-19.549618320610687,328.8073394495413,-41.467889908256886,4.678899082568807,,
1760476680.696959,0,1.46514892578125,0.12451171875,0.1248779296875,9.427480916030534,-150.4732824427481,-7.824427480916031,352.2935779816514,-41.10091743119266,4.587155963302752,,
1760476680.7177515,0,1.46527099609375,0.124267578125,0.124755859375,9.435114503816793,-130.93129770992365,-31.27480916030534,610.6422018348624,-41.00917431192661,3.577981651376147,,
1760476680.7513292,0,1.4654541015625,0.1243896484375,0.12469482421875,9.435114503816793,-121.16030534351145,-13.687022900763358,751.559633027523,-40.91743119266055,3.9449541284403673,,
1760476680.7617145,0,1.465576171875,0.12445068359375,0.1246337890625,9.419847328244275,-160.24427480916032,-7.824427480916031,681.1009174311927,-40.36697247706422,4.128440366972478,,
1760476680.7848377,0,1.46575927734375,0.1243896484375,0.12469482421875,9.419847328244275,-138.74809160305344,-48.86259541984733,634.1284403669725,-41.19266055045871,4.4036697247706424,,
1760476680.7951992,0,1.46588134765625,0.12445068359375,0.124755859375,9.442748091603054,-142.65648854961833,-60.587786259541986,422.7522935779817,-40.642201834862384,4.954128440366973,,
1760476680.8161106,0,1.466064453125,0.1243896484375,0.12481689453125,9.435114503816793,-181.74045801526717,-41.045801526717554,211.37614678899084,-41.8348623853211,4.495412844036697,,
1760476680.8369482,0,1.4661865234375,0.12445068359375,0.12469482421875,9.419847328244275,-162.19847328244273,-29.3206106870229,587.1559633027523,-40.27522935779817,4.220183486238533,,
1760476680.847429,0,1.46636962890625,0.1243896484375,0.1248779296875,9.427480916030534,-136.793893129771,-27.366412213740457,399.26605504587155,-40.91743119266055,4.587155963302752,,
1760476680.8683257,0,1.46649169921875,0.12451171875,0.12481689453125,9.427480916030534,-134.83969465648855,0.0,117.43119266055047,-40.550458715596335,4.4036697247706424,,
1760476680.8995423,0,1.4666748046875,0.12451171875,0.12481689453125,9.419847328244275,-166.10687022900763,-46.908396946564885,211.37614678899084,-40.73394495412844,3.669724770642202,,
1760476680.910169,0,1.466796875,0.1243896484375,0.12469482421875,9.435114503816793,-142.65648854961833,-37.13740458015267,657.6146788990826,-40.642201834862384,4.770642201834862,,
1760476680.931412,0,1.46697998046875,0.12445068359375,0.12469482421875,9.412213740458014,-144.61068702290078,-31.27480916030534,728.0733944954129,-41.00917431192661,4.3119266055045875,,
1760476680.962996,0,1.46710205078125,0.1243896484375,0.12469482421875,9.435114503816793,-136.793893129771,-33.229007633587784,704.5871559633028,-40.73394495412844,4.4036697247706424,,
1760476680.9735847,0,1.46728515625,0.12445068359375,0.12469482421875,9.427480916030534,-130.93129770992365,-66.45038167938931,704.5871559633028,-40.73394495412844,5.045871559633028,,
1760476680.9948316,0,1.4674072265625,0.12445068359375,0.1246337890625,9.427480916030534,-158.29007633587787,-43.0,728.0733944954129,-41.19266055045871,4.495412844036697,,
1760476681.0055754,0,1.46759033203125,0.1243896484375,0.1246337890625,9.412213740458014,-154.38167938931298,-46.908396946564885,540.1834862385322,-41.19266055045871,4.4036697247706424,,
1760476681.026846,0,1.46771240234375,0.12451171875,0.12469482421875,9.435114503816793,-152.42748091603053,-54.725190839694655,587.1559633027523,-41.284403669724774,3.761467889908257,,
1760476681.0586312,0,1.4678955078125,0.12445068359375,0.12457275390625,9.419847328244275,-173.9236641221374,-31.27480916030534,469.72477064220186,-40.550458715596335,4.036697247706423,,
1760476681.0691946,0,1.468017578125,0.12445068359375,0.12469482421875,9.435114503816793,-144.61068702290078,-33.229007633587784,446.2385321100918,-40.642201834862384,3.9449541284403673,,
1760476681.0905852,0,1.46820068359375,0.1243896484375,0.12481689453125,9.419847328244275,-97.70992366412214,-37.13740458015267,493.2110091743119,-40.73394495412844,4.3119266055045875,,
1760476681.1224954,0,1.46832275390625,0.1243896484375,0.1248779296875,9.419847328244275,-150.4732824427481,-39.091603053435115,540.1834862385322,-41.00917431192661,4.128440366972478,,
1760476681.133231,0,1.468505859375,0.12445068359375,0.1246337890625,9.435114503816793,-150.4732824427481,-9.778625954198473,610.6422018348624,-41.467889908256886,4.128440366972478,,
1760476681.1544662,0,1.4686279296875,0.12445068359375,0.1246337890625,9.419847328244275,-140.70229007633588,-60.587786259541986,798.5321100917431,-40.18348623853211,4.036697247706423,,
1760476681.1859937,0,1.46881103515625,0.12451171875,0.124755859375,9.435114503816793,-140.70229007633588,-62.541984732824424,939.4495412844037,-40.91743119266055,3.761467889908257,,
1760476681.1968489,0,1.46893310546875,0.12451171875,0.1246337890625,9.435114503816793,-152.42748091603053,-29.3206106870229,140.91743119266056,-41.00917431192661,4.587155963302752,,
1760476681.2182486,0,1.4691162109375,0.12445068359375,0.12469482421875,9.450381679389313,-136.793893129771,-50.81679389312977,704.5871559633028,-41.284403669724774,4.220183486238533,,
1760476681.2289877,0,1.46923828125,0.12445068359375,0.12481689453125,9.419847328244275,-162.19847328244273,-27.366412213740457,751.559633027523,-41.00917431192661,4.495412844036697,,
1760476681.2503097,0,1.46942138671875,0.12445068359375,0.1248779296875,9.412213740458014,-152.42748091603053,-17.595419847328245,681.1009174311927,-41.559633027522935,4.495412844036697,,
1760476681.2611372,0,1.46954345703125,0.12451171875,0.124755859375,9.412213740458014,-148.51908396946564,-31.27480916030534,516.6972477064221,-40.825688073394495,3.9449541284403673,,
1760476681.2824745,0,1.4697265625,0.1243896484375,0.12457275390625,9.435114503816793,-115.29770992366412,-5.870229007633588,775.045871559633,-40.45871559633027,3.9449541284403673,,
1760476681.2933264,0,1.4698486328125,0.12445068359375,0.12481689453125,9.427480916030534,-134.83969465648855,-17.595419847328245,704.5871559633028,-41.00917431192661,3.853211009174312,,
1760476681.3251874,0,1.47003173828125,0.12451171875,0.124755859375,9.442748091603054,-144.61068702290078,-27.366412213740457,892.4770642201836,-40.45871559633027,4.3119266055045875,,
1760476681.3570237,0,1.47015380859375,0.12445068359375,0.1246337890625,9.419847328244275,-142.65648854961833,-58.63358778625954,704.5871559633028,-40.91743119266055,4.770642201834862,,
1760476681.3678415,0,1.4703369140625,0.12451171875,0.12469482421875,9.442748091603054,-164.15267175572518,-48.86259541984733,281.8348623853211,-41.19266055045871,4.495412844036697,,
1760476681.3891335,0,1.470458984375,0.12445068359375,0.12469482421875,9.412213740458014,-142.65648854961833,-62.541984732824424,634.1284403669725,-40.91743119266055,4.220183486238533,,
1760476681.3996875,0,1.47064208984375,0.1243896484375,0.124755859375,9.427480916030534,-136.793893129771,-25.412213740458014,540.1834862385322,-40.91743119266055,3.9449541284403673,,
1760476681.4211411,0,1.47076416015625,0.12445068359375,0.12481689453125,9.435114503816793,-142.65648854961833,-17.595419847328245,587.1559633027523,-41.19266055045871,4.036697247706423,,
1760476681.4315932,0,1.470947265625,0.12445068359375,0.12493896484375,9.419847328244275,-154.38167938931298,-31.27480916030534,822.0183486238533,-41.00917431192661,3.9449541284403673,,
1760476681.4530807,0,1.4710693359375,0.12451171875,0.12481689453125,9.419847328244275,-142.65648854961833,-33.229007633587784,422.7522935779817,-40.91743119266055,4.678899082568807,,
1760476681.4948306,0,1.47125244140625,0.12445068359375,0.124755859375,9.419847328244275,-127.02290076335878,-66.45038167938931,681.1009174311927,-40.642201834862384,3.853211009174312,,
1760476681.505954,0,1.47137451171875,0.12445068359375,0.12481689453125,9.419847328244275,-156.33587786259542,-23.458015267175572,540.1834862385322,-40.550458715596335,4.495412844036697,,
1760476681.5190487,0,1.4715576171875,0.1243896484375,0.12481689453125,9.419847328244275,-134.83969465648855,-17.595419847328245,469.72477064220186,-40.550458715596335,3.761467889908257,,
1760476681.5500112,0,1.4716796875,0.12445068359375,0.12481689453125,9.427480916030534,-158.29007633587787,-17.595419847328245,822.0183486238533,-41.10091743119266,4.4036697247706424,,
1760476681.5618672,0,1.47186279296875,0.12451171875,0.124755859375,9.427480916030534,-125.06870229007633,-44.954198473282446,516.6972477064221,-41.19266055045871,4.587155963302752,,
1760476681.5828316,0,1.47198486328125,0.12445068359375,0.12469482421875,9.427480916030534,-156.33587786259542,-41.045801526717554,587.1559633027523,-41.37614678899082,4.954128440366973,,
1760476681.6151516,0,1.47216796875,0.1243896484375,0.1246337890625,9.435114503816793,-150.4732824427481,-39.091603053435115,516.6972477064221,-41.00917431192661,4.495412844036697,,
1760476681.6256118,0,1.4722900390625,0.1243896484375,0.1248779296875,9.427480916030534,-193.46564885496184,-48.86259541984733,328.8073394495413,-40.642201834862384,3.761467889908257,,
1760476681.647129,0,1.47247314453125,0.12451171875,0.124755859375,9.435114503816793,-144.61068702290078,-23.458015267175572,446.2385321100918,-41.467889908256886,4.220183486238533,,
1760476681.6575503,0,1.47259521484375,0.1243896484375,0.124755859375,9.450381679389313,-160.24427480916032,-35.18320610687023,681.1009174311927,-40.825688073394495,4.587155963302752,,
1760476681.6698256,0,1.4727783203125,0.1243896484375,0.124755859375,9.412213740458014,-140.70229007633588,-41.045801526717554,657.6146788990826,-41.559633027522935,4.3119266055045875,,
1760476681.7008462,0,1.472900390625,0.12445068359375,0.12457275390625,9.427480916030534,-140.70229007633588,-58.63358778625954,634.1284403669725,-41.37614678899082,4.678899082568807,,
1760476681.7114093,0,1.47308349609375,0.12445068359375,0.1246337890625,9.442748091603054,-142.65648854961833,-64.49618320610686,704.5871559633028,-41.65137614678899,4.036697247706423,,
1760476681.732316,0,1.47320556640625,0.12445068359375,0.124755859375,9.442748091603054,-134.83969465648855,-27.366412213740457,140.91743119266056,-40.642201834862384,4.495412844036697,,
1760476681.742838,0,1.473388671875,0.12432861328125,0.12469482421875,9.419847328244275,-142.65648854961833,-62.541984732824424,352.2935779816514,-41.10091743119266,4.220183486238533,,
1760476681.7739694,0,1.4735107421875,0.1243896484375,0.1248779296875,9.435114503816793,-168.06106870229007,-37.13740458015267,540.1834862385322,-40.550458715596335,4.495412844036697,,
1760476681.8052208,0,1.47369384765625,0.1243896484375,0.1246337890625,9.427480916030534,-166.10687022900763,-37.13740458015267,657.6146788990826,-41.00917431192661,4.036697247706423,,
1760476681.8156953,0,1.47381591796875,0.12451171875,0.12457275390625,9.419847328244275,-127.02290076335878,-15.641221374045802,446.2385321100918,-40.91743119266055,3.9449541284403673,,
1760476681.836462,0,1.4739990234375,0.12451171875,0.12469482421875,9.450381679389313,-130.93129770992365,-15.641221374045802,587.1559633027523,-41.467889908256886,4.3119266055045875,,
1760476681.8678238,0,1.47412109375,0.12445068359375,0.124755859375,9.435114503816793,-158.29007633587787,-13.687022900763358,610.6422018348624,-41.19266055045871,4.036697247706423,,
1760476681.8785462,0,1.47430419921875,0.12451171875,0.12469482421875,9.419847328244275,-156.33587786259542,-19.549618320610687,305.3211009174312,-40.36697247706422,4.128440366972478,,
1760476681.8999457,0,1.47442626953125,0.12451171875,0.1246337890625,9.450381679389313,-107.48091603053435,-31.27480916030534,516.6972477064221,-41.284403669724774,4.4036697247706424,,
1760476681.9105582,0,1.474609375,0.12432861328125,0.12469482421875,9.435114503816793,-115.29770992366412,-19.549618320610687,211.37614678899084,-41.10091743119266,4.495412844036697,,
1760476681.9318888,0,1.4747314453125,0.1243896484375,0.12469482421875,9.427480916030534,-144.61068702290078,-17.595419847328245,822.0183486238533,-41.10091743119266,4.4036697247706424,,
1760476681.9532378,0,1.47491455078125,0.12445068359375,0.12469482421875,9.404580152671755,-154.38167938931298,-66.45038167938931,728.0733944954129,-41.467889908256886,4.4036697247706424,,
1760476681.9639833,0,1.47503662109375,0.1243896484375,0.124755859375,9.427480916030534,-127.02290076335878,-41.045801526717554,822.0183486238533,-40.642201834862384,3.9449541284403673,,
1760476681.9958038,0,1.4752197265625,0.12451171875,0.124755859375,9.412213740458014,-127.02290076335878,-54.725190839694655,587.1559633027523,-40.73394495412844,4.495412844036697,,
1760476682.0065129,0,1.475341796875,0.1243896484375,0.12469482421875,9.419847328244275,-158.29007633587787,-39.091603053435115,751.559633027523,-40.73394495412844,4.128440366972478,,
1760476682.01731,0,1.47552490234375,0.1243896484375,0.12469482421875,9.419847328244275,-187.6030534351145,-31.27480916030534,681.1009174311927,-41.00917431192661,4.587155963302752,,
1760476682.0491207,0,1.47564697265625,0.12451171875,0.12469482421875,9.458015267175572,-144.61068702290078,-17.595419847328245,422.7522935779817,-40.91743119266055,4.678899082568807,,
1760476682.0597634,0,1.475830078125,0.12445068359375,0.124755859375,9.435114503816793,-105.52671755725191,-48.86259541984733,493.2110091743119,-41.19266055045871,4.220183486238533,,
1760476682.080855,0,1.4759521484375,0.1243896484375,0.12469482421875,9.435114503816793,-156.33587786259542,-33.229007633587784,892.4770642201836,-40.642201834862384,4.128440366972478,,
1760476682.1124995,0,1.47613525390625,0.12445068359375,0.124755859375,9.404580152671755,-170.01526717557252,-39.091603053435115,563.6697247706422,-41.37614678899082,3.761467889908257,,
1760476682.1231692,0,1.47625732421875,0.1243896484375,0.124755859375,9.435114503816793,-128.9770992366412,-56.6793893129771,516.6972477064221,-41.559633027522935,4.678899082568807,,
1760476682.1443813,0,1.4764404296875,0.12445068359375,0.12481689453125,9.442748091603054,-136.793893129771,-35.18320610687023,516.6972477064221,-40.73394495412844,4.587155963302752,,
1760476682.175756,0,1.4765625,0.12432861328125,0.12469482421875,9.435114503816793,-134.83969465648855,-21.50381679389313,822.0183486238533,-41.284403669724774,4.4036697247706424,,
1760476682.186483,0,1.47674560546875,0.1243896484375,0.12469482421875,9.419847328244275,-154.38167938931298,-7.824427480916031,540.1834862385322,-40.45871559633027,5.229357798165138,,
1760476682.207948,0,1.47686767578125,0.12445068359375,0.124755859375,9.435114503816793,-128.9770992366412,-0.007633587786259542,469.72477064220186,-41.00917431192661,4.678899082568807,,
1760476682.2290905,0,1.47705078125,0.12445068359375,0.12469482421875,9.412213740458014,-162.19847328244273,-62.541984732824424,540.1834862385322,-40.91743119266055,4.4036697247706424,,
1760476682.239857,0,1.4771728515625,0.12445068359375,0.12481689453125,9.442748091603054,-187.6030534351145,-13.687022900763358,1009.908256880734,-41.19266055045871,4.3119266055045875,,
1760476682.2611809,0,1.47735595703125,0.12451171875,0.1246337890625,9.419847328244275,-136.793893129771,-7.824427480916031,540.1834862385322,-41.10091743119266,4.220183486238533,,
1760476682.2719083,0,1.47747802734375,0.12445068359375,0.124755859375,9.404580152671755,-148.51908396946564,-60.587786259541986,352.2935779816514,-40.642201834862384,4.587155963302752,,
1760476682.293152,0,1.4776611328125,0.12457275390625,0.124755859375,9.435114503816793,-162.19847328244273,-37.13740458015267,657.6146788990826,-41.65137614678899,4.3119266055045875,,
1760476682.3250382,0,1.477783203125,0.12451171875,0.124755859375,9.442748091603054,-136.793893129771,-52.770992366412216,187.88990825688074,-41.00917431192661,4.3119266055045875,,
1760476682.3357973,0,1.47796630859375,0.1243896484375,0.12481689453125,9.427480916030534,-142.65648854961833,-31.27480916030534,469.72477064220186,-40.73394495412844,4.220183486238533,,
1760476682.3572254,0,1.47808837890625,0.1243896484375,0.124755859375,9.435114503816793,-132.8854961832061,-82.08396946564885,587.1559633027523,-41.284403669724774,4.954128440366973,,
1760476682.3890734,0,1.478271484375,0.1243896484375,0.124755859375,9.419847328244275,-128.9770992366412,-33.229007633587784,587.1559633027523,-41.10091743119266,4.3119266055045875,,
1760476682.3998344,0,1.4783935546875,0.12445068359375,0.12469482421875,9.435114503816793,-160.24427480916032,-23.458015267175572,469.72477064220186,-41.00917431192661,4.220183486238533,,
1760476682.421166,0,1.47857666015625,0.12445068359375,0.1246337890625,9.427480916030534,-132.8854961832061,-3.9160305343511452,469.72477064220186,-40.642201834862384,4.587155963302752,,
1760476682.431923,0,1.47869873046875,0.12432861328125,0.124755859375,9.442748091603054,-154.38167938931298,-44.954198473282446,516.6972477064221,-41.10091743119266,3.9449541284403673,,
1760476682.4532127,0,1.4788818359375,0.12451171875,0.124755859375,9.435114503816793,-166.10687022900763,-35.18320610687023,775.045871559633,-41.10091743119266,3.853211009174312,,
1760476682.4850717,0,1.47900390625,0.12445068359375,0.12469482421875,9.435114503816793,-144.61068702290078,-15.641221374045802,563.6697247706422,-40.642201834862384,4.587155963302752,,
1760476682.4958649,0,1.47918701171875,0.12445068359375,0.12481689453125,9.419847328244275,-168.06106870229007,-33.229007633587784,587.1559633027523,-41.559633027522935,4.678899082568807,,
1760476682.5171955,0,1.47930908203125,0.12451171875,0.124755859375,9.419847328244275,-152.42748091603053,-48.86259541984733,822.0183486238533,-41.8348623853211,4.770642201834862,,
1760476682.5278153,0,1.4794921875,0.12445068359375,0.1246337890625,9.435114503816793,-173.9236641221374,-43.0,516.6972477064221,-41.19266055045871,3.853211009174312,,
1760476682.5488307,0,1.4796142578125,0.12445068359375,0.124755859375,9.427480916030534,-175.87786259541986,-39.091603053435115,493.2110091743119,-40.825688073394495,4.220183486238533,,
1760476682.5807292,0,1.47979736328125,0.1243896484375,0.12469482421875,9.427480916030534,-152.42748091603053,-31.27480916030534,892.4770642201836,-41.284403669724774,4.036697247706423,,
1760476682.5914817,0,1.47991943359375,0.12445068359375,0.124755859375,9.427480916030534,-130.93129770992365,-7.824427480916031,634.1284403669725,-40.73394495412844,4.220183486238533,,
1760476682.6125503,0,1.4801025390625,0.12451171875,0.12481689453125,9.427480916030534,-177.8320610687023,-1.9618320610687023,728.0733944954129,-41.74311926605505,4.954128440366973,,
1760476682.6232493,0,1.480224609375,0.12445068359375,0.12469482421875,9.419847328244275,-156.33587786259542,-46.908396946564885,422.7522935779817,-41.284403669724774,4.3119266055045875,,
1760476682.6445434,0,1.48040771484375,0.1243896484375,0.12469482421875,9.412213740458014,-152.42748091603053,-29.3206106870229,634.1284403669725,-41.10091743119266,4.220183486238533,,
1760476682.676438,0,1.48052978515625,0.12445068359375,0.12469482421875,9.435114503816793,-125.06870229007633,-17.595419847328245,610.6422018348624,-40.825688073394495,3.9449541284403673,,
1760476682.6871963,0,1.480712890625,0.12445068359375,0.124755859375,9.427480916030534,-162.19847328244273,-15.641221374045802,657.6146788990826,-41.00917431192661,4.3119266055045875,,
1760476682.708576,0,1.4808349609375,0.124267578125,0.1248779296875,9.427480916030534,-140.70229007633588,-25.412213740458014,258.34862385321105,-41.8348623853211,4.495412844036697,,
1760476682.740125,0,1.48101806640625,0.12451171875,0.124755859375,9.435114503816793,-121.16030534351145,-46.908396946564885,234.86238532110093,-41.65137614678899,3.853211009174312,,
1760476682.7507992,0,1.48114013671875,0.12445068359375,0.1246337890625,9.427480916030534,-117.25190839694656,-50.81679389312977,728.0733944954129,-41.65137614678899,3.669724770642202,,
1760476682.772023,0,1.4813232421875,0.12445068359375,0.1246337890625,9.435114503816793,-144.61068702290078,-15.641221374045802,610.6422018348624,-41.00917431192661,4.036697247706423,,
1760476682.782751,0,1.4814453125,0.12432861328125,0.12469482421875,9.435114503816793,-115.29770992366412,-15.641221374045802,775.045871559633,-40.73394495412844,4.220183486238533,,
1760476682.8038306,0,1.48162841796875,0.12445068359375,0.12469482421875,9.419847328244275,-162.19847328244273,-43.0,751.559633027523,-41.37614678899082,3.853211009174312,,
1760476682.8354707,0,1.48175048828125,0.12445068359375,0.12469482421875,9.435114503816793,-185.64885496183206,-37.13740458015267,845.5045871559633,-41.65137614678899,4.128440366972478,,
1760476682.8460107,0,1.48193359375,0.12451171875,0.124755859375,9.412213740458014,-115.29770992366412,-9.778625954198473,446.2385321100918,-41.00917431192661,4.495412844036697,,
1760476682.8672683,0,1.4820556640625,0.12457275390625,0.124755859375,9.419847328244275,-152.42748091603053,-1.9618320610687023,915.9633027522937,-41.559633027522935,4.128440366972478,,
1760476682.898851,0,1.48223876953125,0.12445068359375,0.12469482421875,9.404580152671755,-142.65648854961833,-25.412213740458014,728.0733944954129,-41.00917431192661,4.4036697247706424,,
1760476682.9093192,0,1.48236083984375,0.12451171875,0.124755859375,9.427480916030534,-173.9236641221374,-25.412213740458014,751.559633027523,-41.559633027522935,3.669724770642202,,
1760476682.9301627,0,1.4825439453125,0.12451171875,0.124755859375,9.427480916030534,-181.74045801526717,-33.229007633587784,446.2385321100918,-41.00917431192661,4.4036697247706424,,
1760476682.9406323,0,1.482666015625,0.1243896484375,0.12457275390625,9.435114503816793,-146.5648854961832,-27.366412213740457,352.2935779816514,-41.37614678899082,4.220183486238533,,
1760476682.9616935,0,1.48284912109375,0.12451171875,0.124755859375,9.419847328244275,-142.65648854961833,-48.86259541984733,399.26605504587155,-41.92660550458716,5.321100917431193,,
1760476683.0040295,0,1.48297119140625,0.12445068359375,0.12481689453125,9.427480916030534,-154.38167938931298,-58.63358778625954,634.1284403669725,-41.00917431192661,3.9449541284403673,,
1760476683.014583,0,1.483154296875,0.12445068359375,0.12469482421875,9.419847328244275,-168.06106870229007,-48.86259541984733,234.86238532110093,-41.19266055045871,3.9449541284403673,,
1760476683.0356264,0,1.4832763671875,0.12432861328125,0.12469482421875,9.412213740458014,-156.33587786259542,-13.687022900763358,798.5321100917431,-40.73394495412844,3.9449541284403673,,
1760476683.0672743,0,1.48345947265625,0.1243896484375,0.124755859375,9.427480916030534,-150.4732824427481,-21.50381679389313,422.7522935779817,-41.284403669724774,4.128440366972478,,
1760476683.0780501,0,1.48358154296875,0.1243896484375,0.12469482421875,9.427480916030534,-134.83969465648855,-50.81679389312977,798.5321100917431,-41.19266055045871,4.4036697247706424,,
1760476683.0992994,0,1.4837646484375,0.12451171875,0.12469482421875,9.427480916030534,-132.8854961832061,-17.595419847328245,704.5871559633028,-41.284403669724774,4.036697247706423,,
1760476683.1099453,0,1.48388671875,0.12445068359375,0.12469482421875,9.427480916030534,-109.43511450381679,1.9541984732824427,563.6697247706422,-41.00917431192661,4.495412844036697,,
1760476683.1307535,0,1.48406982421875,0.1243896484375,0.12469482421875,9.419847328244275,-150.4732824427481,-41.045801526717554,540.1834862385322,-41.10091743119266,4.4036697247706424,,
1760476683.1411703,0,1.48419189453125,0.12445068359375,0.12481689453125,9.427480916030534,-152.42748091603053,-1.9618320610687023,681.1009174311927,-41.37614678899082,4.587155963302752,,
1760476683.1620166,0,1.484375,0.1243896484375,0.1246337890625,9.450381679389313,-140.70229007633588,-31.27480916030534,610.6422018348624,-42.293577981651374,4.3119266055045875,,
1760476683.1828303,0,1.4844970703125,0.12457275390625,0.12469482421875,9.427480916030534,-144.61068702290078,-44.954198473282446,775.045871559633,-40.825688073394495,4.036697247706423,,
1760476683.1932428,0,1.48468017578125,0.1243896484375,0.12451171875,9.435114503816793,-160.24427480916032,-27.366412213740457,422.7522935779817,-40.825688073394495,4.220183486238533,,
1760476683.2142189,0,1.48480224609375,0.12432861328125,0.1246337890625,9.419847328244275,-134.83969465648855,-17.595419847328245,751.559633027523,-40.550458715596335,4.4036697247706424,,
1760476683.2459812,0,1.4849853515625,0.12457275390625,0.12481689453125,9.442748091603054,-154.38167938931298,-5.870229007633588,868.9908256880734,-41.00917431192661,3.761467889908257,,
1760476683.2567701,0,1.485107421875,0.12445068359375,0.12469482421875,9.427480916030534,-140.70229007633588,-33.229007633587784,681.1009174311927,-40.091743119266056,4.220183486238533,,
1760476683.2781067,0,1.48529052734375,0.1243896484375,0.1246337890625,9.427480916030534,-150.4732824427481,-37.13740458015267,469.72477064220186,-41.467889908256886,4.770642201834862,,
1760476683.2889478,0,1.48541259765625,0.12445068359375,0.12469482421875,9.419847328244275,-170.01526717557252,-21.50381679389313,516.6972477064221,-40.91743119266055,4.3119266055045875,,
1760476683.3208106,0,1.485595703125,0.1243896484375,0.1246337890625,9.442748091603054,-156.33587786259542,-41.045801526717554,211.37614678899084,-41.284403669724774,4.3119266055045875,,
1760476683.352563,0,1.4857177734375,0.12445068359375,0.1248779296875,9.412213740458014,-144.61068702290078,-66.45038167938931,798.5321100917431,-41.19266055045871,4.4036697247706424,,
1760476683.363068,0,1.48590087890625,0.1243896484375,0.124755859375,9.419847328244275,-156.33587786259542,-50.81679389312977,234.86238532110093,-40.642201834862384,4.587155963302752,,
1760476683.37374,0,1.48602294921875,0.1243896484375,0.124755859375,9.419847328244275,-144.61068702290078,-15.641221374045802,751.559633027523,-40.73394495412844,4.128440366972478,,
1760476683.3844914,0,1.4862060546875,0.1243896484375,0.124755859375,9.427480916030534,-138.74809160305344,-44.954198473282446,446.2385321100918,-40.550458715596335,4.4036697247706424,,
1760476683.4058123,0,1.486328125,0.12445068359375,0.12469482421875,9.404580152671755,-177.8320610687023,-58.63358778625954,516.6972477064221,-41.37614678899082,4.495412844036697,,
1760476683.4373047,0,1.48651123046875,0.12445068359375,0.124755859375,9.435114503816793,-128.9770992366412,-15.641221374045802,516.6972477064221,-40.825688073394495,4.862385321100918,,
1760476683.447796,0,1.48663330078125,0.1243896484375,0.12481689453125,9.427480916030534,-150.4732824427481,-27.366412213740457,446.2385321100918,-41.00917431192661,4.495412844036697,,
1760476683.4688873,0,1.48681640625,0.1243896484375,0.1246337890625,9.427480916030534,-136.793893129771,-37.13740458015267,775.045871559633,-41.37614678899082,4.3119266055045875,,
1760476683.5009487,0,1.4869384765625,0.12451171875,0.124755859375,9.427480916030534,-164.15267175572518,-44.954198473282446,962.9357798165138,-40.73394495412844,4.036697247706423,,
1760476683.5115454,0,1.48712158203125,0.12451171875,0.1246337890625,9.412213740458014,-177.8320610687023,-60.587786259541986,775.045871559633,-41.00917431192661,4.495412844036697,,
1760476683.5323431,0,1.48724365234375,0.12451171875,0.12469482421875,9.427480916030534,-144.61068702290078,-37.13740458015267,681.1009174311927,-41.19266055045871,3.9449541284403673,,
1760476683.563803,0,1.4874267578125,0.12451171875,0.12469482421875,9.419847328244275,-125.06870229007633,-41.045801526717554,516.6972477064221,-41.559633027522935,4.220183486238533,,
1760476683.5745497,0,1.487548828125,0.12445068359375,0.124755859375,9.412213740458014,-144.61068702290078,-19.549618320610687,540.1834862385322,-41.65137614678899,4.587155963302752,,
1760476683.5960348,0,1.48773193359375,0.12445068359375,0.12469482421875,9.419847328244275,-148.51908396946564,-37.13740458015267,751.559633027523,-41.559633027522935,4.220183486238533,,
1760476683.6280007,0,1.48785400390625,0.1243896484375,0.12481689453125,9.427480916030534,-164.15267175572518,-9.778625954198473,516.6972477064221,-40.550458715596335,3.9449541284403673,,
1760476683.6388094,0,1.488037109375,0.12445068359375,0.124755859375,9.435114503816793,-175.87786259541986,-48.86259541984733,446.2385321100918,-40.36697247706422,3.9449541284403673,,
1760476683.660134,0,1.4881591796875,0.12445068359375,0.12481689453125,9.427480916030534,-132.8854961832061,-31.27480916030534,610.6422018348624,-41.19266055045871,4.220183486238533,,
1760476683.6707697,0,1.48834228515625,0.1243896484375,0.124755859375,9.412213740458014,-138.74809160305344,-56.6793893129771,446.2385321100918,-40.91743119266055,4.036697247706423,,
1760476683.6918907,0,1.48846435546875,0.1243896484375,0.124755859375,9.412213740458014,-166.10687022900763,-46.908396946564885,493.2110091743119,-41.37614678899082,4.495412844036697,,
1760476683.702641,0,1.4886474609375,0.12445068359375,0.12469482421875,9.435114503816793,-132.8854961832061,-17.595419847328245,610.6422018348624,-40.550458715596335,4.128440366972478,,
1760476683.7237225,0,1.48876953125,0.1243896484375,0.1246337890625,9.427480916030534,-166.10687022900763,-27.366412213740457,634.1284403669725,-41.10091743119266,3.1192660550458715,,
1760476683.7551441,0,1.48895263671875,0.12445068359375,0.12481689453125,9.404580152671755,-125.06870229007633,-33.229007633587784,986.4220183486239,-41.10091743119266,4.128440366972478,,
1760476683.7659104,0,1.48907470703125,0.12445068359375,0.1248779296875,9.427480916030534,-171.96946564885496,-31.27480916030534,1009.908256880734,-41.00917431192661,4.495412844036697,,
1760476683.7870939,0,1.4892578125,0.12445068359375,0.12469482421875,9.419847328244275,-142.65648854961833,-25.412213740458014,610.6422018348624,-41.37614678899082,4.770642201834862,,
1760476683.8184752,0,1.4893798828125,0.1243896484375,0.12469482421875,9.427480916030534,-158.29007633587787,-31.27480916030534,681.1009174311927,-40.73394495412844,4.587155963302752,,
1760476683.8292227,0,1.48956298828125,0.12445068359375,0.1246337890625,9.450381679389313,-132.8854961832061,-33.229007633587784,375.7798165137615,-41.19266055045871,3.761467889908257,,
1760476683.8504796,0,1.48968505859375,0.12445068359375,0.124755859375,9.435114503816793,-164.15267175572518,-21.50381679389313,728.0733944954129,-40.91743119266055,3.577981651376147,,
1760476683.8611495,0,1.4898681640625,0.12445068359375,0.124755859375,9.427480916030534,-136.793893129771,-21.50381679389313,610.6422018348624,-40.091743119266056,3.9449541284403673,,
1760476683.88224,0,1.489990234375,0.12432861328125,0.12469482421875,9.427480916030534,-130.93129770992365,-48.86259541984733,681.1009174311927,-41.19266055045871,4.587155963302752,,
1760476683.9138112,0,1.49017333984375,0.12445068359375,0.124755859375,9.435114503816793,-168.06106870229007,-35.18320610687023,540.1834862385322,-40.550458715596335,4.4036697247706424,,
1760476683.9242697,0,1.49029541015625,0.12451171875,0.1246337890625,9.419847328244275,-156.33587786259542,-39.091603053435115,540.1834862385322,-40.825688073394495,3.669724770642202,,
1760476683.945463,0,1.490478515625,0.1243896484375,0.124755859375,9.412213740458014,-175.87786259541986,-31.27480916030534,657.6146788990826,-40.91743119266055,4.495412844036697,,
1760476683.9772835,0,1.4906005859375,0.12451171875,0.12481689453125,9.442748091603054,-156.33587786259542,-15.641221374045802,657.6146788990826,-40.91743119266055,3.9449541284403673,,
1760476683.9877906,0,1.49078369140625,0.12451171875,0.12469482421875,9.427480916030534,-142.65648854961833,-21.50381679389313,469.72477064220186,-40.550458715596335,4.036697247706423,,
1760476683.9984753,0,1.49090576171875,0.12432861328125,0.124755859375,9.419847328244275,-146.5648854961832,-41.045801526717554,563.6697247706422,-41.00917431192661,4.220183486238533,,
1760476684.0092516,0,1.4910888671875,0.12432861328125,0.124755859375,9.404580152671755,-152.42748091603053,-33.229007633587784,681.1009174311927,-41.284403669724774,3.669724770642202,,
1760476684.030607,0,1.4912109375,0.12451171875,0.12451171875,9.419847328244275,-144.61068702290078,-39.091603053435115,868.9908256880734,-41.559633027522935,4.862385321100918,,
1760476684.0624292,0,1.49139404296875,0.12445068359375,0.12469482421875,9.427480916030534,-119.20610687022901,-62.541984732824424,540.1834862385322,-41.00917431192661,4.220183486238533,,
1760476684.0732174,0,1.49151611328125,0.12451171875,0.124755859375,9.419847328244275,-130.93129770992365,-78.17557251908397,657.6146788990826,-41.10091743119266,4.770642201834862,,
1760476684.0946155,0,1.49169921875,0.1243896484375,0.12469482421875,9.412213740458014,-150.4732824427481,-82.08396946564885,328.8073394495413,-41.00917431192661,3.853211009174312,,
1760476684.126343,0,1.4918212890625,0.12451171875,0.124755859375,9.419847328244275,-132.8854961832061,-70.3587786259542,493.2110091743119,-41.10091743119266,3.853211009174312,,
1760476684.1371331,0,1.49200439453125,0.1243896484375,0.1246337890625,9.427480916030534,-181.74045801526717,-25.412213740458014,493.2110091743119,-41.467889908256886,3.577981651376147,,
1760476684.1585348,0,1.49212646484375,0.12451171875,0.12481689453125,9.419847328244275,-162.19847328244273,-11.732824427480915,422.7522935779817,-40.642201834862384,4.220183486238533,,
1760476684.1901548,0,1.4923095703125,0.12445068359375,0.12469482421875,9.419847328244275,-154.38167938931298,-68.40458015267176,563.6697247706422,-41.00917431192661,3.853211009174312,,
1760476684.200636,0,1.492431640625,0.1243896484375,0.124755859375,9.427480916030534,-140.70229007633588,-43.0,587.1559633027523,-41.467889908256886,4.3119266055045875,,
1760476684.2217662,0,1.49261474609375,0.1243896484375,0.12469482421875,9.435114503816793,-166.10687022900763,-48.86259541984733,117.43119266055047,-42.11009174311926,4.220183486238533,,
1760476684.2531114,0,1.49273681640625,0.12451171875,0.124755859375,9.419847328244275,-140.70229007633588,-29.3206106870229,822.0183486238533,-41.10091743119266,3.761467889908257,,
1760476684.2635868,0,1.492919921875,0.12445068359375,0.124755859375,9.435114503816793,-128.9770992366412,-46.908396946564885,775.045871559633,-41.00917431192661,3.9449541284403673,,
1760476684.2849143,0,1.4930419921875,0.1243896484375,0.124755859375,9.412213740458014,-197.3740458015267,-43.0,469.72477064220186,-41.19266055045871,4.036697247706423,,
1760476684.3165853,0,1.49322509765625,0.1243896484375,0.12469482421875,9.427480916030534,-146.5648854961832,-7.824427480916031,305.3211009174312,-41.559633027522935,3.9449541284403673,,
1760476684.3273873,0,1.49334716796875,0.12445068359375,0.12481689453125,9.442748091603054,-158.29007633587787,-5.870229007633588,516.6972477064221,-40.550458715596335,4.678899082568807,,
1760476684.348866,0,1.4935302734375,0.12451171875,0.12481689453125,9.442748091603054,-150.4732824427481,-85.99236641221374,798.5321100917431,-41.19266055045871,4.036697247706423,,
1760476684.3595934,0,1.49365234375,0.1243896484375,0.12469482421875,9.404580152671755,-154.38167938931298,-33.229007633587784,775.045871559633,-40.642201834862384,3.853211009174312,,
1760476684.3703275,0,1.49383544921875,0.12445068359375,0.1246337890625,9.442748091603054,-166.10687022900763,-37.13740458015267,845.5045871559633,-41.00917431192661,4.495412844036697,,
1760476684.380987,0,1.49395751953125,0.12445068359375,0.12469482421875,9.419847328244275,-146.5648854961832,-11.732824427480915,446.2385321100918,-40.550458715596335,4.128440366972478,,
1760476684.4021091,0,1.494140625,0.1243896484375,0.12457275390625,9.419847328244275,-144.61068702290078,-50.81679389312977,540.1834862385322,-40.91743119266055,4.4036697247706424,,
1760476684.4340427,0,1.4942626953125,0.1243896484375,0.124755859375,9.427480916030534,-140.70229007633588,-31.27480916030534,751.559633027523,-41.10091743119266,4.128440366972478,,
1760476684.4446325,0,1.49444580078125,0.12445068359375,0.12469482421875,9.442748091603054,-144.61068702290078,-3.9160305343511452,493.2110091743119,-41.10091743119266,4.220183486238533,,
1760476684.4657288,0,1.49456787109375,0.12451171875,0.12469482421875,9.435114503816793,-142.65648854961833,-37.13740458015267,610.6422018348624,-40.73394495412844,3.669724770642202,,
1760476684.497563,0,1.4947509765625,0.12445068359375,0.124755859375,9.412213740458014,-171.96946564885496,-74.26717557251908,587.1559633027523,-40.45871559633027,4.036697247706423,,
1760476684.5082226,0,1.494873046875,0.12432861328125,0.124755859375,9.404580152671755,-138.74809160305344,-54.725190839694655,563.6697247706422,-41.00917431192661,3.669724770642202,,
1760476684.5291843,0,1.49505615234375,0.12432861328125,0.124755859375,9.404580152671755,-144.61068702290078,-44.954198473282446,563.6697247706422,-41.284403669724774,4.495412844036697,,
1760476684.5396814,0,1.49517822265625,0.12445068359375,0.1248779296875,9.419847328244275,-162.19847328244273,3.9083969465648853,798.5321100917431,-40.73394495412844,4.220183486238533,,
1760476684.5609457,0,1.495361328125,0.12445068359375,0.1246337890625,9.427480916030534,-160.24427480916032,-13.687022900763358,657.6146788990826,-40.825688073394495,4.036697247706423,,
1760476684.5928824,0,1.4954833984375,0.12445068359375,0.124755859375,9.419847328244275,-152.42748091603053,-19.549618320610687,610.6422018348624,-40.45871559633027,4.4036697247706424,,
1760476684.6036096,0,1.49566650390625,0.1243896484375,0.12469482421875,9.419847328244275,-123.1145038167939,-33.229007633587784,399.26605504587155,-40.825688073394495,3.9449541284403673,,
1760476684.624846,0,1.49578857421875,0.12432861328125,0.12481689453125,9.412213740458014,-171.96946564885496,-52.770992366412216,915.9633027522937,-40.36697247706422,4.4036697247706424,,
1760476684.65627,0,1.4959716796875,0.12445068359375,0.124755859375,9.427480916030534,-117.25190839694656,-35.18320610687023,516.6972477064221,-41.65137614678899,3.853211009174312,,
1760476684.6670384,0,1.49609375,0.1243896484375,0.12451171875,9.435114503816793,-130.93129770992365,-35.18320610687023,634.1284403669725,-41.00917431192661,4.770642201834862,,
1760476684.688204,0,1.49627685546875,0.1243896484375,0.124755859375,9.442748091603054,-162.19847328244273,-54.725190839694655,399.26605504587155,-40.91743119266055,4.220183486238533,,
1760476684.7092974,0,1.49639892578125,0.12445068359375,0.124755859375,9.419847328244275,-148.51908396946564,-41.045801526717554,469.72477064220186,-40.642201834862384,3.9449541284403673,,
1760476684.720046,0,1.49658203125,0.12457275390625,0.124755859375,9.419847328244275,-177.8320610687023,-33.229007633587784,493.2110091743119,-40.550458715596335,4.220183486238533,,
1760476684.7520316,0,1.4967041015625,0.1243896484375,0.1246337890625,9.419847328244275,-168.06106870229007,-43.0,375.7798165137615,-40.73394495412844,4.954128440366973,,
1760476684.762861,0,1.49688720703125,0.12445068359375,0.12457275390625,9.435114503816793,-134.83969465648855,-17.595419847328245,728.0733944954129,-41.284403669724774,4.036697247706423,,
1760476684.7736843,0,1.49700927734375,0.1243896484375,0.1248779296875,9.412213740458014,-156.33587786259542,-15.641221374045802,681.1009174311927,-40.642201834862384,4.036697247706423,,
1760476684.8055165,0,1.4971923828125,0.12451171875,0.124755859375,9.427480916030534,-158.29007633587787,-13.687022900763358,305.3211009174312,-40.91743119266055,3.761467889908257,,
1760476684.816402,0,1.497314453125,0.1243896484375,0.12457275390625,9.442748091603054,-154.38167938931298,-64.49618320610686,751.559633027523,-40.091743119266056,3.761467889908257,,
1760476684.837825,0,1.49749755859375,0.1243896484375,0.12469482421875,9.435114503816793,-132.8854961832061,-37.13740458015267,986.4220183486239,-41.19266055045871,4.3119266055045875,,
1760476684.869551,0,1.49761962890625,0.12445068359375,0.124755859375,9.419847328244275,-138.74809160305344,-58.63358778625954,563.6697247706422,-40.73394495412844,4.4036697247706424,,
1760476684.880007,0,1.497802734375,0.1243896484375,0.12469482421875,9.419847328244275,-113.34351145038168,-37.13740458015267,516.6972477064221,-41.10091743119266,4.495412844036697,,
1760476684.9012587,0,1.4979248046875,0.12451171875,0.12481689453125,9.419847328244275,-134.83969465648855,-52.770992366412216,234.86238532110093,-40.91743119266055,4.3119266055045875,,
1760476684.9120045,0,1.49810791015625,0.12451171875,0.124755859375,9.419847328244275,-127.02290076335878,-29.3206106870229,563.6697247706422,-40.36697247706422,4.495412844036697,,
1760476684.9333556,0,1.49822998046875,0.1243896484375,0.124755859375,9.427480916030534,-123.1145038167939,-54.725190839694655,469.72477064220186,-40.825688073394495,4.128440366972478,,
1760476684.9653494,0,1.4984130859375,0.1243896484375,0.124755859375,9.427480916030534,-144.61068702290078,-76.22137404580153,775.045871559633,-40.91743119266055,4.862385321100918,,
1760476684.9761117,0,1.49853515625,0.12432861328125,0.12469482421875,9.419847328244275,-140.70229007633588,5.862595419847328,446.2385321100918,-40.91743119266055,4.3119266055045875,,
1760476684.9974003,0,1.49871826171875,0.12445068359375,0.124755859375,9.427480916030534,-152.42748091603053,-33.229007633587784,610.6422018348624,-41.284403669724774,4.678899082568807,,
1760476685.0292234,0,1.49884033203125,0.12457275390625,0.12469482421875,9.427480916030534,-150.4732824427481,-39.091603053435115,610.6422018348624,-40.73394495412844,4.587155963302752,,
1760476685.0399306,0,1.4990234375,0.12445068359375,0.12469482421875,9.412213740458014,-170.01526717557252,-25.412213740458014,751.559633027523,-40.825688073394495,4.128440366972478,,
1760476685.0612311,0,1.4991455078125,0.1243896484375,0.1246337890625,9.419847328244275,-160.24427480916032,-29.3206106870229,610.6422018348624,-41.74311926605505,4.128440366972478,,
1760476685.0720084,0,1.49932861328125,0.12457275390625,0.12481689453125,9.427480916030534,-160.24427480916032,-62.541984732824424,587.1559633027523,-40.91743119266055,4.587155963302752,,
1760476685.0933983,0,1.49945068359375,0.1243896484375,0.12469482421875,9.419847328244275,-146.5648854961832,-50.81679389312977,610.6422018348624,-40.91743119266055,3.9449541284403673,,
1760476685.1253562,0,1.4996337890625,0.12451171875,0.12469482421875,9.427480916030534,-136.793893129771,17.587786259541986,563.6697247706422,-41.00917431192661,4.495412844036697,,
1760476685.136127,0,1.499755859375,0.1243896484375,0.12469482421875,9.427480916030534,-150.4732824427481,-41.045801526717554,775.045871559633,-40.825688073394495,4.4036697247706424,,
1760476685.1574857,0,1.49993896484375,0.12451171875,0.1246337890625,9.412213740458014,-142.65648854961833,-15.641221374045802,728.0733944954129,-42.018348623853214,4.3119266055045875,,
1760476685.168275,0,1.50006103515625,0.12445068359375,0.124755859375,9.435114503816793,-128.9770992366412,-29.3206106870229,375.7798165137615,-40.45871559633027,3.486238532110092,,
1760476685.189459,0,1.500244140625,0.12445068359375,0.1246337890625,9.427480916030534,-171.96946564885496,-33.229007633587784,657.6146788990826,-40.73394495412844,4.495412844036697,,
1760476685.2208757,0,1.5003662109375,0.12445068359375,0.124755859375,9.435114503816793,-146.5648854961832,-41.045801526717554,986.4220183486239,-40.45871559633027,3.853211009174312,,
1760476685.2314644,0,1.50054931640625,0.12445068359375,0.12469482421875,9.435114503816793,-142.65648854961833,-44.954198473282446,399.26605504587155,-40.825688073394495,4.4036697247706424,,
1760476685.2527366,0,1.50067138671875,0.12451171875,0.12469482421875,9.419847328244275,-166.10687022900763,-35.18320610687023,469.72477064220186,-40.550458715596335,4.495412844036697,,
1760476685.2740953,0,1.5008544921875,0.12445068359375,0.124755859375,9.419847328244275,-162.19847328244273,-35.18320610687023,681.1009174311927,-40.642201834862384,3.577981651376147,,
1760476685.284911,0,1.5009765625,0.12432861328125,0.12469482421875,9.419847328244275,-148.51908396946564,-33.229007633587784,234.86238532110093,-40.45871559633027,3.577981651376147,,
1760476685.3062108,0,1.50115966796875,0.12432861328125,0.12469482421875,9.404580152671755,-113.34351145038168,-29.3206106870229,422.7522935779817,-40.91743119266055,4.587155963302752,,
1760476685.3378081,0,1.50128173828125,0.12451171875,0.124755859375,9.435114503816793,-156.33587786259542,-11.732824427480915,540.1834862385322,-41.19266055045871,3.9449541284403673,,
1760476685.3485377,0,1.50146484375,0.12445068359375,0.1246337890625,9.435114503816793,-123.1145038167939,-46.908396946564885,751.559633027523,-41.37614678899082,4.495412844036697,,
1760476685.3699753,0,1.5015869140625,0.12451171875,0.124755859375,9.419847328244275,-142.65648854961833,-50.81679389312977,610.6422018348624,-41.10091743119266,3.9449541284403673,,
1760476685.3807328,0,1.50177001953125,0.1243896484375,0.12469482421875,9.419847328244275,-150.4732824427481,-21.50381679389313,1033.3944954128442,-40.825688073394495,4.128440366972478,,
1760476685.4020846,0,1.50189208984375,0.1243896484375,0.12469482421875,9.427480916030534,-132.8854961832061,-31.27480916030534,305.3211009174312,-40.825688073394495,3.761467889908257,,
1760476685.4337897,0,1.5020751953125,0.1243896484375,0.124755859375,9.404580152671755,-156.33587786259542,-13.687022900763358,1009.908256880734,-40.45871559633027,4.4036697247706424,,
1760476685.4445174,0,1.502197265625,0.12445068359375,0.12481689453125,9.412213740458014,-152.42748091603053,-37.13740458015267,587.1559633027523,-41.10091743119266,4.495412844036697,,
1760476685.465692,0,1.50238037109375,0.1243896484375,0.124755859375,9.412213740458014,-128.9770992366412,-48.86259541984733,657.6146788990826,-41.559633027522935,4.954128440366973,,
1760476685.476194,0,1.50250244140625,0.12445068359375,0.12469482421875,9.412213740458014,-144.61068702290078,-43.0,1009.908256880734,-41.284403669724774,4.220183486238533,,
1760476685.4973273,0,1.502685546875,0.12445068359375,0.124755859375,9.419847328244275,-152.42748091603053,-31.27480916030534,892.4770642201836,-40.550458715596335,3.669724770642202,,
1760476685.5288918,0,1.5028076171875,0.124267578125,0.124755859375,9.419847328244275,-128.9770992366412,-58.63358778625954,704.5871559633028,-40.642201834862384,3.761467889908257,,
1760476685.560552,0,1.50299072265625,0.12445068359375,0.124755859375,9.427480916030534,-168.06106870229007,-25.412213740458014,469.72477064220186,-40.91743119266055,4.4036697247706424,,
1760476685.57134,0,1.50311279296875,0.12451171875,0.12457275390625,9.419847328244275,-156.33587786259542,-35.18320610687023,469.72477064220186,-41.559633027522935,4.495412844036697,,
1760476685.5928447,0,1.5032958984375,0.1246337890625,0.124755859375,9.419847328244275,-138.74809160305344,-9.778625954198473,962.9357798165138,-41.19266055045871,4.220183486238533,,
1760476685.6033974,0,1.50341796875,0.12457275390625,0.124755859375,9.419847328244275,-127.02290076335878,-46.908396946564885,610.6422018348624,-41.10091743119266,4.128440366972478,,
1760476685.6246004,0,1.50360107421875,0.12432861328125,0.12481689453125,9.435114503816793,-160.24427480916032,-41.045801526717554,540.1834862385322,-40.825688073394495,4.036697247706423,,
1760476685.635387,0,1.50372314453125,0.12445068359375,0.124755859375,9.435114503816793,-115.29770992366412,-23.458015267175572,704.5871559633028,-40.825688073394495,3.577981651376147,,
1760476685.65674,0,1.50390625,0.12445068359375,0.124755859375,9.427480916030534,-144.61068702290078,-27.366412213740457,610.6422018348624,-41.19266055045871,4.220183486238533,,
1760476685.6885512,0,1.5040283203125,0.1243896484375,0.12469482421875,9.427480916030534,-173.9236641221374,-25.412213740458014,657.6146788990826,-41.10091743119266,4.4036697247706424,,
1760476685.6993296,0,1.50421142578125,0.1243896484375,0.1246337890625,9.435114503816793,-138.74809160305344,-39.091603053435115,892.4770642201836,-40.550458715596335,4.495412844036697,,
1760476685.720478,0,1.50433349609375,0.1243896484375,0.1246337890625,9.427480916030534,-148.51908396946564,-23.458015267175572,328.8073394495413,-41.00917431192661,4.3119266055045875,,
1760476685.7521791,0,1.5045166015625,0.12451171875,0.12469482421875,9.412213740458014,-148.51908396946564,-17.595419847328245,822.0183486238533,-40.825688073394495,3.486238532110092,,
1760476685.762926,0,1.504638671875,0.1243896484375,0.124755859375,9.442748091603054,-140.70229007633588,-37.13740458015267,728.0733944954129,-40.27522935779817,3.761467889908257,,
1760476685.7843695,0,1.50482177734375,0.12445068359375,0.1246337890625,9.442748091603054,-134.83969465648855,0.0,634.1284403669725,-41.19266055045871,4.495412844036697,,
1760476685.7951572,0,1.50494384765625,0.12451171875,0.12469482421875,9.435114503816793,-117.25190839694656,-31.27480916030534,868.9908256880734,-41.37614678899082,3.9449541284403673,,
1760476685.816499,0,1.505126953125,0.12445068359375,0.124755859375,9.427480916030534,-144.61068702290078,-15.641221374045802,281.8348623853211,-41.559633027522935,4.678899082568807,,
1760476685.848452,0,1.5052490234375,0.12451171875,0.1246337890625,9.419847328244275,-125.06870229007633,-39.091603053435115,446.2385321100918,-41.284403669724774,4.4036697247706424,,
1760476685.8592587,0,1.50543212890625,0.12445068359375,0.12469482421875,9.435114503816793,-142.65648854961833,-80.12977099236642,681.1009174311927,-41.65137614678899,4.128440366972478,,
1760476685.880599,0,1.50555419921875,0.12445068359375,0.12469482421875,9.419847328244275,-156.33587786259542,-48.86259541984733,516.6972477064221,-40.642201834862384,4.3119266055045875,,
1760476685.8912575,0,1.5057373046875,0.12445068359375,0.124755859375,9.427480916030534,-154.38167938931298,-35.18320610687023,634.1284403669725,-40.642201834862384,4.036697247706423,,
1760476685.9126086,0,1.505859375,0.12432861328125,0.12469482421875,9.419847328244275,-168.06106870229007,-31.27480916030534,751.559633027523,-41.19266055045871,4.128440366972478,,
1760476685.9440897,0,1.50604248046875,0.12432861328125,0.124755859375,9.427480916030534,-175.87786259541986,-29.3206106870229,915.9633027522937,-40.91743119266055,4.587155963302752,,
1760476685.9546251,0,1.50616455078125,0.12451171875,0.124755859375,9.419847328244275,-171.96946564885496,-29.3206106870229,587.1559633027523,-41.19266055045871,4.4036697247706424,,
1760476685.9758797,0,1.50634765625,0.12457275390625,0.12481689453125,9.419847328244275,-121.16030534351145,-52.770992366412216,469.72477064220186,-41.284403669724774,4.3119266055045875,,
1760476686.007589,0,1.5064697265625,0.12445068359375,0.124755859375,9.412213740458014,-138.74809160305344,-29.3206106870229,681.1009174311927,-40.73394495412844,3.761467889908257,,
1760476686.0183728,0,1.50665283203125,0.12445068359375,0.12469482421875,9.427480916030534,-142.65648854961833,-27.366412213740457,751.559633027523,-40.642201834862384,4.4036697247706424,,
1760476686.0395098,0,1.50677490234375,0.1243896484375,0.12469482421875,9.419847328244275,-130.93129770992365,-27.366412213740457,845.5045871559633,-41.284403669724774,4.4036697247706424,,
1760476686.0711722,0,1.5069580078125,0.12451171875,0.124755859375,9.419847328244275,-140.70229007633588,-62.541984732824424,563.6697247706422,-40.73394495412844,4.036697247706423,,
1760476686.081793,0,1.507080078125,0.12445068359375,0.1246337890625,9.427480916030534,-138.74809160305344,-74.26717557251908,775.045871559633,-40.550458715596335,4.3119266055045875,,
1760476686.10323,0,1.50726318359375,0.12445068359375,0.124755859375,9.435114503816793,-148.51908396946564,-54.725190839694655,798.5321100917431,-41.284403669724774,4.678899082568807,,
1760476686.1244357,0,1.50738525390625,0.12445068359375,0.12469482421875,9.419847328244275,-142.65648854961833,-25.412213740458014,775.045871559633,-40.642201834862384,4.036697247706423,,
1760476686.1352806,0,1.507568359375,0.12451171875,0.12469482421875,9.435114503816793,-148.51908396946564,-74.26717557251908,352.2935779816514,-41.284403669724774,4.036697247706423,,
1760476686.1460304,0,1.5076904296875,0.12451171875,0.124755859375,9.427480916030534,-121.16030534351145,-19.549618320610687,915.9633027522937,-41.00917431192661,4.770642201834862,,
1760476686.167237,0,1.50787353515625,0.1243896484375,0.12457275390625,9.435114503816793,-103.57251908396947,-37.13740458015267,516.6972477064221,-41.37614678899082,4.3119266055045875,,
1760476686.198868,0,1.50799560546875,0.12445068359375,0.1246337890625,9.404580152671755,-125.06870229007633,-13.687022900763358,822.0183486238533,-41.10091743119266,3.853211009174312,,
1760476686.2094436,0,1.5081787109375,0.1243896484375,0.1248779296875,9.435114503816793,-140.70229007633588,-35.18320610687023,634.1284403669725,-41.10091743119266,3.9449541284403673,,
1760476686.2307138,0,1.50830078125,0.12445068359375,0.12469482421875,9.435114503816793,-164.15267175572518,-1.9618320610687023,610.6422018348624,-40.18348623853211,4.128440366972478,,
1760476686.2413945,0,1.50848388671875,0.12432861328125,0.124755859375,9.427480916030534,-150.4732824427481,-56.6793893129771,775.045871559633,-40.73394495412844,4.220183486238533,,
1760476686.262708,0,1.50860595703125,0.12432861328125,0.1246337890625,9.427480916030534,-127.02290076335878,-39.091603053435115,798.5321100917431,-40.73394495412844,4.4036697247706424,,
1760476686.29433,0,1.5087890625,0.12445068359375,0.1246337890625,9.427480916030534,-158.29007633587787,-41.045801526717554,469.72477064220186,-41.00917431192661,4.678899082568807,,
1760476686.3049836,0,1.5089111328125,0.12451171875,0.12469482421875,9.435114503816793,-162.19847328244273,-39.091603053435115,751.559633027523,-41.19266055045871,4.3119266055045875,,
1760476686.3259914,0,1.50909423828125,0.12445068359375,0.124755859375,9.419847328244275,-173.9236641221374,-29.3206106870229,822.0183486238533,-40.825688073394495,4.495412844036697,,
1760476686.347301,0,1.50921630859375,0.12445068359375,0.124755859375,9.419847328244275,-99.66412213740458,-31.27480916030534,775.045871559633,-40.73394495412844,3.761467889908257,,
1760476686.3581936,0,1.5093994140625,0.12451171875,0.12469482421875,9.427480916030534,-150.4732824427481,-54.725190839694655,516.6972477064221,-40.91743119266055,4.036697247706423,,
1760476686.3793604,0,1.509521484375,0.1243896484375,0.12457275390625,9.435114503816793,-119.20610687022901,-29.3206106870229,728.0733944954129,-41.19266055045871,4.128440366972478,,
1760476686.4107559,0,1.50970458984375,0.12451171875,0.12469482421875,9.419847328244275,-144.61068702290078,-60.587786259541986,446.2385321100918,-40.73394495412844,5.137614678899083,,
1760476686.4214983,0,1.50982666015625,0.12445068359375,0.12481689453125,9.427480916030534,-148.51908396946564,-39.091603053435115,352.2935779816514,-40.45871559633027,4.128440366972478,,
1760476686.4426095,0,1.510009765625,0.12432861328125,0.12469482421875,9.419847328244275,-128.9770992366412,-29.3206106870229,610.6422018348624,-40.825688073394495,4.3119266055045875,,
1760476686.453248,0,1.5101318359375,0.12451171875,0.124755859375,9.427480916030534,-162.19847328244273,-9.778625954198473,728.0733944954129,-41.00917431192661,4.220183486238533,,
1760476686.4742806,0,1.51031494140625,0.1243896484375,0.12469482421875,9.419847328244275,-125.06870229007633,-29.3206106870229,634.1284403669725,-40.73394495412844,4.678899082568807,,
1760476686.505816,0,1.51043701171875,0.12445068359375,0.1246337890625,9.427480916030534,-148.51908396946564,-48.86259541984733,352.2935779816514,-40.45871559633027,4.678899082568807,,
1760476686.5162818,0,1.5106201171875,0.12451171875,0.12469482421875,9.419847328244275,-148.51908396946564,-35.18320610687023,493.2110091743119,-41.00917431192661,4.036697247706423,,
1760476686.537643,0,1.5107421875,0.12445068359375,0.12469482421875,9.412213740458014,-144.61068702290078,-23.458015267175572,540.1834862385322,-41.65137614678899,3.9449541284403673,,
1760476686.5695682,0,1.51092529296875,0.12457275390625,0.12481689453125,9.419847328244275,-154.38167938931298,-21.50381679389313,422.7522935779817,-40.642201834862384,4.4036697247706424,,
1760476686.5803921,0,1.51104736328125,0.12457275390625,0.12469482421875,9.419847328244275,-144.61068702290078,-33.229007633587784,704.5871559633028,-40.642201834862384,4.495412844036697,,
1760476686.6017816,0,1.51123046875,0.12451171875,0.124755859375,9.435114503816793,-138.74809160305344,-41.045801526717554,939.4495412844037,-40.825688073394495,4.3119266055045875,,
1760476686.6334991,0,1.5113525390625,0.12451171875,0.124755859375,9.427480916030534,-115.29770992366412,-23.458015267175572,939.4495412844037,-41.37614678899082,4.495412844036697,,
1760476686.6441689,0,1.51153564453125,0.12445068359375,0.12469482421875,9.419847328244275,-142.65648854961833,-39.091603053435115,446.2385321100918,-40.825688073394495,4.862385321100918,,
1760476686.6655219,0,1.51165771484375,0.12445068359375,0.1246337890625,9.419847328244275,-127.02290076335878,-39.091603053435115,939.4495412844037,-41.284403669724774,3.9449541284403673,,
1760476686.696894,0,1.5118408203125,0.12445068359375,0.1246337890625,9.419847328244275,-148.51908396946564,-21.50381679389313,728.0733944954129,-40.36697247706422,4.036697247706423,,
1760476686.7073512,0,1.511962890625,0.12451171875,0.12469482421875,9.404580152671755,-132.8854961832061,-0.007633587786259542,1244.770642201835,-41.559633027522935,4.128440366972478,,
1760476686.7283633,0,1.51214599609375,0.12445068359375,0.124755859375,9.419847328244275,-142.65648854961833,-37.13740458015267,587.1559633027523,-41.00917431192661,4.3119266055045875,,
1760476686.739143,0,1.51226806640625,0.1243896484375,0.124755859375,9.435114503816793,-130.93129770992365,-39.091603053435115,422.7522935779817,-41.559633027522935,3.9449541284403673,,
1760476686.76017,0,1.512451171875,0.12445068359375,0.124755859375,9.435114503816793,-160.24427480916032,-54.725190839694655,704.5871559633028,-41.467889908256886,4.4036697247706424,,
1760476686.7706358,0,1.5125732421875,0.12445068359375,0.124755859375,9.427480916030534,-187.6030534351145,-68.40458015267176,375.7798165137615,-40.825688073394495,4.4036697247706424,,
1760476686.7915623,0,1.51275634765625,0.1243896484375,0.12469482421875,9.435114503816793,-148.51908396946564,-58.63358778625954,1009.908256880734,-41.467889908256886,4.495412844036697,,
1760476686.8230233,0,1.51287841796875,0.12445068359375,0.1246337890625,9.427480916030534,-127.02290076335878,-25.412213740458014,657.6146788990826,-40.91743119266055,4.220183486238533,,
1760476686.8338716,0,1.5130615234375,0.1243896484375,0.12469482421875,9.419847328244275,-119.20610687022901,-56.6793893129771,563.6697247706422,-41.00917431192661,4.3119266055045875,,
1760476686.8552015,0,1.51318359375,0.12445068359375,0.124755859375,9.442748091603054,-130.93129770992365,-29.3206106870229,540.1834862385322,-40.73394495412844,4.587155963302752,,
1760476686.8658004,0,1.51336669921875,0.1243896484375,0.1248779296875,9.419847328244275,-130.93129770992365,-50.81679389312977,634.1284403669725,-40.825688073394495,4.495412844036697,,
1760476686.8869207,0,1.51348876953125,0.12432861328125,0.124755859375,9.427480916030534,-121.16030534351145,-35.18320610687023,775.045871559633,-41.10091743119266,3.853211009174312,,
1760476686.9189909,0,1.513671875,0.12457275390625,0.12469482421875,9.419847328244275,-148.51908396946564,-7.824427480916031,399.26605504587155,-40.18348623853211,4.036697247706423,,
1760476686.9297955,0,1.5137939453125,0.12451171875,0.124755859375,9.427480916030534,-134.83969465648855,-9.778625954198473,868.9908256880734,-41.00917431192661,3.577981651376147,,
1760476686.9511368,0,1.51397705078125,0.1243896484375,0.12457275390625,9.419847328244275,-140.70229007633588,-58.63358778625954,352.2935779816514,-40.550458715596335,4.220183486238533,,
1760476686.9829955,0,1.51409912109375,0.12445068359375,0.12469482421875,9.427480916030534,-179.78625954198472,-46.908396946564885,704.5871559633028,-40.825688073394495,4.3119266055045875,,
1760476686.9937022,0,1.5142822265625,0.12445068359375,0.12481689453125,9.419847328244275,-128.9770992366412,-56.6793893129771,540.1834862385322,-41.19266055045871,4.678899082568807,,
1760476687.0150864,0,1.514404296875,0.12445068359375,0.124755859375,9.419847328244275,-134.83969465648855,-19.549618320610687,563.6697247706422,-40.550458715596335,3.9449541284403673,,
1760476687.0258687,0,1.51458740234375,0.12445068359375,0.12469482421875,9.419847328244275,-132.8854961832061,-43.0,540.1834862385322,-40.642201834862384,3.761467889908257,,
1760476687.0472848,0,1.51470947265625,0.12432861328125,0.12481689453125,9.427480916030534,-140.70229007633588,-58.63358778625954,704.5871559633028,-41.00917431192661,4.128440366972478,,
1760476687.0581617,0,1.514892578125,0.12445068359375,0.12469482421875,9.404580152671755,-164.15267175572518,-25.412213740458014,516.6972477064221,-41.00917431192661,3.486238532110092,,
1760476687.079521,0,1.5150146484375,0.12451171875,0.124755859375,9.412213740458014,-158.29007633587787,-9.778625954198473,704.5871559633028,-41.00917431192661,4.587155963302752,,
1760476687.1111798,0,1.51519775390625,0.12451171875,0.12469482421875,9.419847328244275,-148.51908396946564,0.0,516.6972477064221,-40.825688073394495,3.9449541284403673,,
1760476687.1219003,0,1.51531982421875,0.12445068359375,0.1248779296875,9.412213740458014,-146.5648854961832,-27.366412213740457,915.9633027522937,-41.10091743119266,3.9449541284403673,,
1760476687.1430218,0,1.5155029296875,0.12445068359375,0.124755859375,9.404580152671755,-193.46564885496184,-48.86259541984733,516.6972477064221,-41.10091743119266,3.9449541284403673,,
1760476687.1747696,0,1.515625,0.12445068359375,0.12469482421875,9.404580152671755,-142.65648854961833,-58.63358778625954,328.8073394495413,-41.559633027522935,4.036697247706423,,
1760476687.185514,0,1.51580810546875,0.1243896484375,0.124755859375,9.427480916030534,-140.70229007633588,-33.229007633587784,634.1284403669725,-41.00917431192661,4.3119266055045875,,
1760476687.2069201,0,1.51593017578125,0.12445068359375,0.1246337890625,9.412213740458014,-160.24427480916032,-23.458015267175572,234.86238532110093,-41.10091743119266,3.669724770642202,,
1760476687.2177088,0,1.51611328125,0.12445068359375,0.12481689453125,9.419847328244275,-117.25190839694656,-25.412213740458014,728.0733944954129,-40.45871559633027,4.862385321100918,,
1760476687.2390375,0,1.5162353515625,0.12445068359375,0.124755859375,9.419847328244275,-187.6030534351145,-48.86259541984733,681.1009174311927,-41.00917431192661,4.3119266055045875,,
1760476687.2709587,0,1.51641845703125,0.1243896484375,0.1246337890625,9.427480916030534,-181.74045801526717,-27.366412213740457,563.6697247706422,-40.825688073394495,4.587155963302752,,
1760476687.2817297,0,1.51654052734375,0.12451171875,0.12469482421875,9.427480916030534,-146.5648854961832,-3.9160305343511452,375.7798165137615,-40.825688073394495,3.761467889908257,,
1760476687.3030574,0,1.5167236328125,0.12451171875,0.12469482421875,9.412213740458014,-158.29007633587787,-60.587786259541986,375.7798165137615,-40.642201834862384,4.128440366972478,,
1760476687.313846,0,1.516845703125,0.12451171875,0.12469482421875,9.419847328244275,-162.19847328244273,-33.229007633587784,375.7798165137615,-40.73394495412844,3.853211009174312,,
1760476687.3352468,0,1.51702880859375,0.1243896484375,0.12481689453125,9.435114503816793,-128.9770992366412,-54.725190839694655,422.7522935779817,-40.825688073394495,3.669724770642202,,
1760476687.3671687,0,1.51715087890625,0.1243896484375,0.1248779296875,9.427480916030534,-136.793893129771,-52.770992366412216,704.5871559633028,-40.550458715596335,4.4036697247706424,,
1760476687.3779063,0,1.517333984375,0.12457275390625,0.12469482421875,9.450381679389313,-111.38931297709924,-17.595419847328245,258.34862385321105,-41.467889908256886,4.495412844036697,,
1760476687.3992586,0,1.5174560546875,0.12445068359375,0.1246337890625,9.435114503816793,-152.42748091603053,-19.549618320610687,540.1834862385322,-41.19266055045871,4.128440366972478,,
1760476687.431016,0,1.51763916015625,0.12445068359375,0.1246337890625,9.419847328244275,-156.33587786259542,-15.641221374045802,634.1284403669725,-41.467889908256886,3.9449541284403673,,
1760476687.4418142,0,1.51776123046875,0.1243896484375,0.12469482421875,9.427480916030534,-164.15267175572518,-41.045801526717554,446.2385321100918,-41.00917431192661,4.036697247706423,,
1760476687.463279,0,1.5179443359375,0.12445068359375,0.1246337890625,9.419847328244275,-123.1145038167939,-15.641221374045802,915.9633027522937,-41.19266055045871,3.853211009174312,,
1760476687.4740033,0,1.51806640625,0.1243896484375,0.124755859375,9.427480916030534,-136.793893129771,-37.13740458015267,751.559633027523,-40.91743119266055,4.770642201834862,,
1760476687.4953816,0,1.51824951171875,0.1243896484375,0.124755859375,9.419847328244275,-134.83969465648855,-58.63358778625954,493.2110091743119,-41.00917431192661,4.128440366972478,,
1760476687.516797,0,1.51837158203125,0.1243896484375,0.124755859375,9.396946564885496,-140.70229007633588,-27.366412213740457,493.2110091743119,-41.467889908256886,4.220183486238533,,
1760476687.5275652,0,1.5185546875,0.12432861328125,0.12469482421875,9.412213740458014,-148.51908396946564,-66.45038167938931,399.26605504587155,-40.73394495412844,4.4036697247706424,,
1760476687.5489137,0,1.5186767578125,0.12451171875,0.12481689453125,9.404580152671755,-146.5648854961832,-52.770992366412216,845.5045871559633,-40.91743119266055,3.3944954128440368,,
1760476687.580802,0,1.51885986328125,0.12451171875,0.12481689453125,9.427480916030534,-142.65648854961833,-44.954198473282446,375.7798165137615,-40.91743119266055,4.678899082568807,,
1760476687.6125922,0,1.51898193359375,0.1243896484375,0.12481689453125,9.435114503816793,-140.70229007633588,-23.458015267175572,939.4495412844037,-40.73394495412844,4.495412844036697,,
1760476687.6233752,0,1.5191650390625,0.12457275390625,0.12481689453125,9.427480916030534,-166.10687022900763,-50.81679389312977,375.7798165137615,-41.559633027522935,4.128440366972478,,
1760476687.6448061,0,1.519287109375,0.12451171875,0.1246337890625,9.435114503816793,-175.87786259541986,-17.595419847328245,939.4495412844037,-41.37614678899082,4.220183486238533,,
1760476687.6555245,0,1.51947021484375,0.12445068359375,0.12481689453125,9.419847328244275,-150.4732824427481,-17.595419847328245,540.1834862385322,-41.467889908256886,4.036697247706423,,
1760476687.6769183,0,1.51959228515625,0.12445068359375,0.1246337890625,9.419847328244275,-148.51908396946564,-25.412213740458014,563.6697247706422,-41.74311926605505,4.220183486238533,,
1760476687.6877098,0,1.519775390625,0.12451171875,0.1246337890625,9.404580152671755,-148.51908396946564,-31.27480916030534,704.5871559633028,-41.19266055045871,4.587155963302752,,
1760476687.709076,0,1.5198974609375,0.12432861328125,0.124755859375,9.427480916030534,-134.83969465648855,-31.27480916030534,446.2385321100918,-40.642201834862384,4.220183486238533,,
1760476687.7408671,0,1.52008056640625,0.12451171875,0.124755859375,9.427480916030534,-146.5648854961832,-25.412213740458014,563.6697247706422,-40.91743119266055,4.495412844036697,,
1760476687.7516093,0,1.52020263671875,0.12445068359375,0.12469482421875,9.442748091603054,-138.74809160305344,-50.81679389312977,775.045871559633,-41.467889908256886,4.770642201834862,,
1760476687.773009,0,1.5203857421875,0.12432861328125,0.124755859375,9.412213740458014,-138.74809160305344,-27.366412213740457,469.72477064220186,-40.36697247706422,4.495412844036697,,
1760476687.8049066,0,1.5205078125,0.1243896484375,0.124755859375,9.419847328244275,-168.06106870229007,-50.81679389312977,892.4770642201836,-41.19266055045871,4.220183486238533,,
1760476687.815627,0,1.52069091796875,0.12445068359375,0.12469482421875,9.427480916030534,-146.5648854961832,-15.641221374045802,281.8348623853211,-40.642201834862384,4.3119266055045875,,
1760476687.8370056,0,1.52081298828125,0.12445068359375,0.12469482421875,9.427480916030534,-121.16030534351145,-19.549618320610687,868.9908256880734,-41.19266055045871,4.220183486238533,,
1760476687.847779,0,1.52099609375,0.12445068359375,0.1248779296875,9.435114503816793,-175.87786259541986,-21.50381679389313,775.045871559633,-41.00917431192661,4.036697247706423,,
1760476687.8692358,0,1.5211181640625,0.12445068359375,0.12469482421875,9.412213740458014,-156.33587786259542,-19.549618320610687,399.26605504587155,-41.00917431192661,4.220183486238533,,
1760476687.901071,0,1.52130126953125,0.12432861328125,0.124755859375,9.442748091603054,-144.61068702290078,-17.595419847328245,352.2935779816514,-40.91743119266055,4.3119266055045875,,
1760476687.9118323,0,1.52142333984375,0.12445068359375,0.12469482421875,9.419847328244275,-140.70229007633588,-27.366412213740457,493.2110091743119,-40.825688073394495,4.4036697247706424,,
1760476687.933246,0,1.5216064453125,0.12451171875,0.12481689453125,9.419847328244275,-189.55725190839695,-54.725190839694655,915.9633027522937,-41.19266055045871,4.4036697247706424,,
1760476687.9439917,0,1.521728515625,0.1243896484375,0.1246337890625,9.435114503816793,-123.1145038167939,-54.725190839694655,211.37614678899084,-40.91743119266055,4.128440366972478,,
1760476687.9654257,0,1.52191162109375,0.12445068359375,0.124755859375,9.427480916030534,-127.02290076335878,-41.045801526717554,845.5045871559633,-41.467889908256886,4.587155963302752,,
1760476687.986624,0,1.52203369140625,0.12432861328125,0.1246337890625,9.435114503816793,-144.61068702290078,-25.412213740458014,728.0733944954129,-41.19266055045871,4.678899082568807,,
1760476687.9973106,0,1.522216796875,0.12445068359375,0.124755859375,9.419847328244275,-177.8320610687023,-52.770992366412216,469.72477064220186,-41.10091743119266,4.128440366972478,,
1760476688.01862,0,1.5223388671875,0.12445068359375,0.1248779296875,9.404580152671755,-142.65648854961833,-25.412213740458014,587.1559633027523,-41.284403669724774,4.220183486238533,,
1760476688.0504458,0,1.52252197265625,0.1243896484375,0.12481689453125,9.412213740458014,-132.8854961832061,3.9083969465648853,751.559633027523,-40.825688073394495,4.128440366972478,,
1760476688.0610962,0,1.52264404296875,0.12445068359375,0.124755859375,9.435114503816793,-140.70229007633588,-5.870229007633588,634.1284403669725,-41.37614678899082,4.495412844036697,,
1760476688.0823076,0,1.5228271484375,0.1243896484375,0.12481689453125,9.435114503816793,-136.793893129771,-64.49618320610686,1080.3669724770643,-41.8348623853211,4.587155963302752,,
1760476688.0930562,0,1.52294921875,0.12445068359375,0.12481689453125,9.412213740458014,-142.65648854961833,-35.18320610687023,657.6146788990826,-41.19266055045871,3.9449541284403673,,
1760476688.1144407,0,1.52313232421875,0.1243896484375,0.124755859375,9.412213740458014,-130.93129770992365,-41.045801526717554,751.559633027523,-41.19266055045871,4.036697247706423,,
1760476688.1464157,0,1.52325439453125,0.1243896484375,0.12481689453125,9.427480916030534,-136.793893129771,-29.3206106870229,446.2385321100918,-40.73394495412844,3.9449541284403673,,
1760476688.157303,0,1.5234375,0.1243896484375,0.1246337890625,9.427480916030534,-183.6946564885496,-39.091603053435115,610.6422018348624,-40.825688073394495,4.495412844036697,,
1760476688.1783197,0,1.5235595703125,0.1243896484375,0.12469482421875,9.427480916030534,-127.02290076335878,-50.81679389312977,422.7522935779817,-41.19266055045871,4.036697247706423,,
1760476688.2099001,0,1.52374267578125,0.12451171875,0.124755859375,9.427480916030534,-152.42748091603053,-9.778625954198473,469.72477064220186,-40.825688073394495,4.3119266055045875,,
1760476688.241714,0,1.52386474609375,0.12451171875,0.124755859375,9.419847328244275,-107.48091603053435,-5.870229007633588,681.1009174311927,-41.19266055045871,4.3119266055045875,,
1760476688.252455,0,1.5240478515625,0.12445068359375,0.124755859375,9.419847328244275,-144.61068702290078,-33.229007633587784,493.2110091743119,-41.00917431192661,4.128440366972478,,
1760476688.2738626,0,1.524169921875,0.12445068359375,0.12469482421875,9.435114503816793,-156.33587786259542,-25.412213740458014,540.1834862385322,-41.10091743119266,3.669724770642202,,
1760476688.2845807,0,1.52435302734375,0.1243896484375,0.1246337890625,9.435114503816793,-127.02290076335878,-1.9618320610687023,516.6972477064221,-40.91743119266055,3.9449541284403673,,
1760476688.3059113,0,1.52447509765625,0.12445068359375,0.12469482421875,9.419847328244275,-214.9618320610687,-50.81679389312977,822.0183486238533,-41.559633027522935,4.036697247706423,,
1760476688.3167114,0,1.524658203125,0.12445068359375,0.124755859375,9.419847328244275,-140.70229007633588,-48.86259541984733,751.559633027523,-40.642201834862384,4.4036697247706424,,
1760476688.3274834,0,1.5247802734375,0.12451171875,0.12469482421875,9.427480916030534,-127.02290076335878,-15.641221374045802,493.2110091743119,-40.73394495412844,4.036697247706423,,
1760476688.359359,0,1.52496337890625,0.12445068359375,0.12481689453125,9.435114503816793,-183.6946564885496,-62.541984732824424,751.559633027523,-41.284403669724774,4.036697247706423,,
1760476688.370107,0,1.52508544921875,0.12445068359375,0.1246337890625,9.427480916030534,-166.10687022900763,-17.595419847328245,399.26605504587155,-40.18348623853211,4.220183486238533,,
1760476688.3914988,0,1.5252685546875,0.12432861328125,0.12469482421875,9.412213740458014,-148.51908396946564,-39.091603053435115,634.1284403669725,-41.284403669724774,3.761467889908257,,
1760476688.4234576,0,1.525390625,0.12451171875,0.124755859375,9.404580152671755,-183.6946564885496,-58.63358778625954,493.2110091743119,-41.10091743119266,4.3119266055045875,,
1760476688.4549396,0,1.52557373046875,0.12445068359375,0.1246337890625,9.427480916030534,-156.33587786259542,-13.687022900763358,610.6422018348624,-40.91743119266055,4.220183486238533,,
1760476688.4654107,0,1.52569580078125,0.12451171875,0.12469482421875,9.442748091603054,-136.793893129771,-46.908396946564885,563.6697247706422,-41.65137614678899,4.4036697247706424,,
1760476688.4865656,0,1.52587890625,0.1243896484375,0.124755859375,9.427480916030534,-138.74809160305344,-29.3206106870229,681.1009174311927,-40.91743119266055,3.9449541284403673,,
1760476688.4973583,0,1.5260009765625,0.12451171875,0.124755859375,9.435114503816793,-162.19847328244273,-43.0,704.5871559633028,-41.37614678899082,3.669724770642202,,
1760476688.5187426,0,1.52618408203125,0.12451171875,0.12481689453125,9.442748091603054,-134.83969465648855,-19.549618320610687,939.4495412844037,-41.10091743119266,4.495412844036697,,
1760476688.5294385,0,1.52630615234375,0.12457275390625,0.12469482421875,9.427480916030534,-162.19847328244273,-37.13740458015267,634.1284403669725,-40.825688073394495,4.3119266055045875,,
1760476688.550962,0,1.5264892578125,0.12445068359375,0.12469482421875,9.427480916030534,-150.4732824427481,-25.412213740458014,610.6422018348624,-40.91743119266055,4.678899082568807,,
1760476688.5828934,0,1.526611328125,0.12445068359375,0.124755859375,9.442748091603054,-146.5648854961832,-27.366412213740457,962.9357798165138,-41.467889908256886,3.9449541284403673,,
1760476688.5934885,0,1.52679443359375,0.12445068359375,0.124755859375,9.435114503816793,-138.74809160305344,-33.229007633587784,422.7522935779817,-40.550458715596335,4.4036697247706424,,
1760476688.6148264,0,1.52691650390625,0.12445068359375,0.12481689453125,9.435114503816793,-142.65648854961833,-21.50381679389313,704.5871559633028,-41.284403669724774,4.495412844036697,,
1760476688.6255713,0,1.527099609375,0.12451171875,0.12469482421875,9.419847328244275,-177.8320610687023,-27.366412213740457,399.26605504587155,-41.284403669724774,3.853211009174312,,
1760476688.6469803,0,1.5272216796875,0.12451171875,0.12469482421875,9.427480916030534,-170.01526717557252,-37.13740458015267,634.1284403669725,-40.825688073394495,4.220183486238533,,
1760476688.6682749,0,1.52740478515625,0.12445068359375,0.12457275390625,9.427480916030534,-142.65648854961833,-31.27480916030534,493.2110091743119,-41.37614678899082,4.128440366972478,,
1760476688.6790104,0,1.52752685546875,0.12457275390625,0.124755859375,9.435114503816793,-154.38167938931298,-29.3206106870229,704.5871559633028,-40.36697247706422,4.3119266055045875,,
1760476688.7004476,0,1.5277099609375,0.12451171875,0.1248779296875,9.412213740458014,-140.70229007633588,-56.6793893129771,728.0733944954129,-40.642201834862384,4.128440366972478,,
1760476688.732343,0,1.52783203125,0.1243896484375,0.124755859375,9.435114503816793,-146.5648854961832,-25.412213740458014,587.1559633027523,-40.550458715596335,3.761467889908257,,
1760476688.7431693,0,1.52801513671875,0.12457275390625,0.12481689453125,9.427480916030534,-140.70229007633588,-41.045801526717554,681.1009174311927,-41.19266055045871,4.128440366972478,,
1760476688.76456,0,1.52813720703125,0.12451171875,0.12469482421875,9.427480916030534,-179.78625954198472,-31.27480916030534,587.1559633027523,-41.284403669724774,4.862385321100918,,
1760476688.775477,0,1.5283203125,0.12432861328125,0.124755859375,9.419847328244275,-146.5648854961832,-25.412213740458014,422.7522935779817,-41.19266055045871,4.862385321100918,,
1760476688.796809,0,1.5284423828125,0.12451171875,0.124755859375,9.419847328244275,-140.70229007633588,-27.366412213740457,775.045871559633,-41.65137614678899,3.853211009174312,,
1760476688.8287373,0,1.52862548828125,0.1243896484375,0.124755859375,9.419847328244275,-140.70229007633588,-13.687022900763358,540.1834862385322,-40.825688073394495,4.4036697247706424,,
1760476688.8606346,0,1.52874755859375,0.1243896484375,0.12481689453125,9.435114503816793,-125.06870229007633,-25.412213740458014,728.0733944954129,-40.825688073394495,3.669724770642202,,
1760476688.8714635,0,1.5289306640625,0.12432861328125,0.124755859375,9.427480916030534,-115.29770992366412,-13.687022900763358,681.1009174311927,-40.73394495412844,4.587155963302752,,
1760476688.892902,0,1.529052734375,0.12445068359375,0.124755859375,9.412213740458014,-146.5648854961832,-60.587786259541986,610.6422018348624,-41.467889908256886,4.4036697247706424,,
1760476688.90349,0,1.52923583984375,0.1243896484375,0.12469482421875,9.435114503816793,-150.4732824427481,-23.458015267175572,798.5321100917431,-41.467889908256886,4.770642201834862,,
1760476688.9245682,0,1.52935791015625,0.12445068359375,0.12457275390625,9.412213740458014,-132.8854961832061,-29.3206106870229,634.1284403669725,-40.73394495412844,4.587155963302752,,
1760476688.935392,0,1.529541015625,0.12457275390625,0.12469482421875,9.419847328244275,-158.29007633587787,-0.007633587786259542,422.7522935779817,-41.00917431192661,3.853211009174312,,
1760476688.9569697,0,1.5296630859375,0.12451171875,0.12481689453125,9.427480916030534,-166.10687022900763,3.9083969465648853,587.1559633027523,-40.642201834862384,3.9449541284403673,,
1760476688.9886782,0,1.52984619140625,0.12445068359375,0.124755859375,9.419847328244275,-175.87786259541986,-41.045801526717554,258.34862385321105,-40.825688073394495,4.128440366972478,,
1760476688.9991105,0,1.52996826171875,0.1243896484375,0.1248779296875,9.412213740458014,-136.793893129771,-48.86259541984733,1033.3944954128442,-40.91743119266055,4.4036697247706424,,
1760476689.020342,0,1.5301513671875,0.1243896484375,0.1248779296875,9.419847328244275,-152.42748091603053,-31.27480916030534,634.1284403669725,-40.91743119266055,4.495412844036697,,
1760476689.0522163,0,1.5302734375,0.12445068359375,0.124755859375,9.442748091603054,-160.24427480916032,-50.81679389312977,822.0183486238533,-41.37614678899082,3.9449541284403673,,
1760476689.0735989,0,1.53045654296875,0.1243896484375,0.124755859375,9.435114503816793,-127.02290076335878,-27.366412213740457,915.9633027522937,-40.91743119266055,4.128440366972478,,
1760476689.0843258,0,1.53057861328125,0.12445068359375,0.1246337890625,9.427480916030534,-142.65648854961833,-76.22137404580153,563.6697247706422,-40.91743119266055,5.045871559633028,,
1760476689.1053126,0,1.53076171875,0.12432861328125,0.124755859375,9.419847328244275,-127.02290076335878,-52.770992366412216,798.5321100917431,-40.27522935779817,4.4036697247706424,,
1760476689.1161754,0,1.5308837890625,0.12445068359375,0.124755859375,9.419847328244275,-170.01526717557252,-48.86259541984733,657.6146788990826,-40.73394495412844,4.3119266055045875,,
1760476689.1375325,0,1.53106689453125,0.1243896484375,0.1246337890625,9.404580152671755,-156.33587786259542,-29.3206106870229,634.1284403669725,-40.825688073394495,3.761467889908257,,
1760476689.1481946,0,1.53118896484375,0.12451171875,0.124755859375,9.412213740458014,-160.24427480916032,-44.954198473282446,657.6146788990826,-41.10091743119266,4.587155963302752,,
1760476689.1692657,0,1.5313720703125,0.1243896484375,0.12469482421875,9.427480916030534,-158.29007633587787,-9.778625954198473,657.6146788990826,-41.00917431192661,4.036697247706423,,
1760476689.201118,0,1.531494140625,0.12451171875,0.12481689453125,9.435114503816793,-127.02290076335878,-5.870229007633588,540.1834862385322,-40.550458715596335,3.853211009174312,,
1760476689.2118976,0,1.53167724609375,0.1243896484375,0.12481689453125,9.435114503816793,-121.16030534351145,-23.458015267175572,798.5321100917431,-40.642201834862384,3.853211009174312,,
1760476689.2331948,0,1.53179931640625,0.1243896484375,0.12469482421875,9.427480916030534,-144.61068702290078,-66.45038167938931,775.045871559633,-41.284403669724774,3.761467889908257,,
1760476689.2439516,0,1.531982421875,0.12451171875,0.12469482421875,9.419847328244275,-156.33587786259542,-5.870229007633588,422.7522935779817,-41.10091743119266,5.045871559633028,,
1760476689.2653296,0,1.5321044921875,0.12445068359375,0.124755859375,9.435114503816793,-152.42748091603053,-44.954198473282446,587.1559633027523,-41.10091743119266,4.3119266055045875,,
1760476689.297256,0,1.53228759765625,0.1243896484375,0.124755859375,9.427480916030534,-136.793893129771,-39.091603053435115,634.1284403669725,-41.19266055045871,4.3119266055045875,,
1760476689.3080757,0,1.53240966796875,0.1243896484375,0.124755859375,9.419847328244275,-154.38167938931298,-33.229007633587784,234.86238532110093,-41.467889908256886,3.577981651376147,,
1760476689.3295283,0,1.5325927734375,0.1243896484375,0.1246337890625,9.442748091603054,-160.24427480916032,-35.18320610687023,540.1834862385322,-40.91743119266055,4.770642201834862,,
1760476689.361317,0,1.53271484375,0.12451171875,0.12481689453125,9.427480916030534,-121.16030534351145,-15.641221374045802,728.0733944954129,-41.00917431192661,4.587155963302752,,
1760476689.3721044,0,1.53289794921875,0.12445068359375,0.124755859375,9.427480916030534,-136.793893129771,-17.595419847328245,610.6422018348624,-41.10091743119266,4.770642201834862,,
1760476689.393451,0,1.53302001953125,0.1243896484375,0.12469482421875,9.419847328244275,-113.34351145038168,-17.595419847328245,892.4770642201836,-41.559633027522935,4.128440366972478,,
1760476689.425401,0,1.533203125,0.12445068359375,0.12469482421875,9.427480916030534,-175.87786259541986,-9.778625954198473,469.72477064220186,-41.10091743119266,3.669724770642202,,
1760476689.4361997,0,1.5333251953125,0.12451171875,0.12469482421875,9.419847328244275,-99.66412213740458,-64.49618320610686,563.6697247706422,-40.642201834862384,4.036697247706423,,
1760476689.4575927,0,1.53350830078125,0.12445068359375,0.1248779296875,9.442748091603054,-128.9770992366412,-3.9160305343511452,798.5321100917431,-40.73394495412844,3.669724770642202,,
1760476689.4894984,0,1.53363037109375,0.12445068359375,0.12481689453125,9.419847328244275,-125.06870229007633,-27.366412213740457,540.1834862385322,-41.00917431192661,4.3119266055045875,,
1760476689.50032,0,1.5338134765625,0.12457275390625,0.124755859375,9.412213740458014,-148.51908396946564,-5.870229007633588,493.2110091743119,-40.36697247706422,4.495412844036697,,
1760476689.5110223,0,1.533935546875,0.12445068359375,0.12469482421875,9.427480916030534,-187.6030534351145,-7.824427480916031,845.5045871559633,-40.73394495412844,4.3119266055045875,,
1760476689.5217474,0,1.53411865234375,0.12445068359375,0.12469482421875,9.412213740458014,-136.793893129771,-48.86259541984733,634.1284403669725,-41.19266055045871,3.669724770642202,,
1760476689.5538225,0,1.53424072265625,0.12451171875,0.124755859375,9.412213740458014,-142.65648854961833,-62.541984732824424,587.1559633027523,-41.00917431192661,4.036697247706423,,
1760476689.5645673,0,1.534423828125,0.12451171875,0.124755859375,9.419847328244275,-146.5648854961832,-39.091603053435115,704.5871559633028,-40.73394495412844,4.678899082568807,,
1760476689.5858297,0,1.5345458984375,0.12451171875,0.12469482421875,9.435114503816793,-127.02290076335878,-7.824427480916031,962.9357798165138,-41.65137614678899,4.862385321100918,,
1760476689.6173084,0,1.53472900390625,0.1243896484375,0.124755859375,9.419847328244275,-132.8854961832061,-52.770992366412216,211.37614678899084,-41.284403669724774,4.495412844036697,,
1760476689.6280518,0,1.53485107421875,0.1243896484375,0.124755859375,9.419847328244275,-146.5648854961832,-23.458015267175572,587.1559633027523,-41.19266055045871,3.761467889908257,,
1760476689.6490684,0,1.5350341796875,0.1243896484375,0.12469482421875,9.404580152671755,-148.51908396946564,-35.18320610687023,845.5045871559633,-41.10091743119266,4.036697247706423,,
1760476689.6703715,0,1.53515625,0.12445068359375,0.124755859375,9.442748091603054,-152.42748091603053,-54.725190839694655,751.559633027523,-41.19266055045871,4.3119266055045875,,
1760476689.6812398,0,1.53533935546875,0.12451171875,0.1246337890625,9.419847328244275,-156.33587786259542,-60.587786259541986,634.1284403669725,-41.00917431192661,3.9449541284403673,,
1760476689.7131507,0,1.53546142578125,0.12451171875,0.124755859375,9.435114503816793,-154.38167938931298,-21.50381679389313,634.1284403669725,-40.91743119266055,4.587155963302752,,
1760476689.7239075,0,1.53564453125,0.12445068359375,0.12469482421875,9.412213740458014,-177.8320610687023,-48.86259541984733,540.1834862385322,-41.37614678899082,4.587155963302752,,
1760476689.7452698,0,1.5357666015625,0.12451171875,0.124755859375,9.404580152671755,-150.4732824427481,-31.27480916030534,892.4770642201836,-40.825688073394495,4.4036697247706424,,
1760476689.777072,0,1.53594970703125,0.12445068359375,0.12481689453125,9.419847328244275,-156.33587786259542,-43.0,728.0733944954129,-40.36697247706422,4.220183486238533,,
1760476689.787866,0,1.53607177734375,0.12445068359375,0.1248779296875,9.442748091603054,-162.19847328244273,-56.6793893129771,634.1284403669725,-41.37614678899082,4.128440366972478,,
1760476689.8093002,0,1.5362548828125,0.12445068359375,0.12481689453125,9.419847328244275,-150.4732824427481,-13.687022900763358,375.7798165137615,-41.19266055045871,4.220183486238533,,
1760476689.820023,0,1.536376953125,0.12445068359375,0.124755859375,9.419847328244275,-150.4732824427481,-48.86259541984733,798.5321100917431,-41.284403669724774,4.4036697247706424,,
1760476689.8414419,0,1.53656005859375,0.1243896484375,0.124755859375,9.427480916030534,-128.9770992366412,-50.81679389312977,1056.8807339449543,-42.11009174311926,4.678899082568807,,
1760476689.8629434,0,1.53668212890625,0.12445068359375,0.124755859375,9.442748091603054,-150.4732824427481,-21.50381679389313,868.9908256880734,-41.19266055045871,4.220183486238533,,
1760476689.8737323,0,1.536865234375,0.1243896484375,0.12481689453125,9.419847328244275,-144.61068702290078,-31.27480916030534,446.2385321100918,-41.10091743119266,3.9449541284403673,,
1760476689.8949354,0,1.5369873046875,0.12445068359375,0.12481689453125,9.419847328244275,-136.793893129771,-19.549618320610687,469.72477064220186,-40.91743119266055,4.495412844036697,,
1760476689.905764,0,1.53717041015625,0.12445068359375,0.12457275390625,9.404580152671755,-158.29007633587787,-52.770992366412216,939.4495412844037,-40.91743119266055,4.4036697247706424,,
1760476689.9377282,0,1.53729248046875,0.12432861328125,0.12481689453125,9.419847328244275,-150.4732824427481,-25.412213740458014,422.7522935779817,-41.19266055045871,4.4036697247706424,,
1760476689.9590805,0,1.5374755859375,0.12445068359375,0.124755859375,9.427480916030534,-125.06870229007633,-23.458015267175572,657.6146788990826,-41.00917431192661,4.4036697247706424,,
1760476689.9698668,0,1.53759765625,0.12451171875,0.124755859375,9.435114503816793,-160.24427480916032,-41.045801526717554,352.2935779816514,-41.10091743119266,4.3119266055045875,,
1760476689.9912705,0,1.53778076171875,0.12432861328125,0.12469482421875,9.427480916030534,-123.1145038167939,-33.229007633587784,751.559633027523,-41.19266055045871,3.853211009174312,,
1760476690.0231583,0,1.53790283203125,0.1243896484375,0.12469482421875,9.412213740458014,-123.1145038167939,-39.091603053435115,375.7798165137615,-41.284403669724774,3.853211009174312,,
1760476690.0339396,0,1.5380859375,0.1243896484375,0.12481689453125,9.435114503816793,-171.96946564885496,-44.954198473282446,798.5321100917431,-40.825688073394495,4.587155963302752,,
1760476690.0553758,0,1.5382080078125,0.12451171875,0.124755859375,9.435114503816793,-160.24427480916032,-11.732824427480915,281.8348623853211,-41.284403669724774,3.9449541284403673,,
1760476690.066049,0,1.53839111328125,0.12445068359375,0.1246337890625,9.412213740458014,-103.57251908396947,-29.3206106870229,704.5871559633028,-40.91743119266055,4.3119266055045875,,
1760476690.0872657,0,1.53851318359375,0.12445068359375,0.12469482421875,9.442748091603054,-150.4732824427481,-27.366412213740457,563.6697247706422,-40.550458715596335,4.862385321100918,,
1760476690.1192334,0,1.5386962890625,0.1243896484375,0.124755859375,9.419847328244275,-148.51908396946564,-58.63358778625954,728.0733944954129,-41.00917431192661,3.761467889908257,,
1760476690.1298842,0,1.538818359375,0.12445068359375,0.12481689453125,9.419847328244275,-154.38167938931298,-29.3206106870229,775.045871559633,-41.10091743119266,4.220183486238533,,
1760476690.1509986,0,1.53900146484375,0.12451171875,0.124755859375,9.419847328244275,-138.74809160305344,-23.458015267175572,540.1834862385322,-41.10091743119266,3.9449541284403673,,
1760476690.182944,0,1.53912353515625,0.12432861328125,0.12469482421875,9.442748091603054,-93.80152671755725,-21.50381679389313,657.6146788990826,-40.642201834862384,4.678899082568807,,
1760476690.1937387,0,1.539306640625,0.1243896484375,0.12481689453125,9.427480916030534,-144.61068702290078,-41.045801526717554,775.045871559633,-40.642201834862384,4.128440366972478,,
1760476690.2150133,0,1.5394287109375,0.1243896484375,0.124755859375,9.427480916030534,-146.5648854961832,-52.770992366412216,704.5871559633028,-40.91743119266055,4.3119266055045875,,
1760476690.2258053,0,1.53961181640625,0.12445068359375,0.124755859375,9.404580152671755,-128.9770992366412,-19.549618320610687,798.5321100917431,-40.91743119266055,4.128440366972478,,
1760476690.2470007,0,1.53973388671875,0.1243896484375,0.12481689453125,9.442748091603054,-101.61832061068702,-54.725190839694655,469.72477064220186,-40.45871559633027,4.220183486238533,,
1760476690.2788332,0,1.5399169921875,0.1243896484375,0.12469482421875,9.427480916030534,-179.78625954198472,-58.63358778625954,657.6146788990826,-40.550458715596335,4.495412844036697,,
1760476690.2894492,0,1.5400390625,0.12432861328125,0.12469482421875,9.404580152671755,-185.64885496183206,-46.908396946564885,587.1559633027523,-41.65137614678899,4.128440366972478,,
1760476690.3107674,0,1.54022216796875,0.12445068359375,0.12481689453125,9.427480916030534,-125.06870229007633,-60.587786259541986,634.1284403669725,-40.73394495412844,4.128440366972478,,
1760476690.3212612,0,1.54034423828125,0.1243896484375,0.1246337890625,9.412213740458014,-154.38167938931298,-13.687022900763358,751.559633027523,-40.73394495412844,3.577981651376147,,
1760476690.3423502,0,1.54052734375,0.12432861328125,0.124755859375,9.435114503816793,-144.61068702290078,-27.366412213740457,610.6422018348624,-41.10091743119266,4.220183486238533,,
1760476690.3743052,0,1.5406494140625,0.1243896484375,0.1248779296875,9.442748091603054,-150.4732824427481,-31.27480916030534,657.6146788990826,-40.73394495412844,4.036697247706423,,
1760476690.3851213,0,1.54083251953125,0.12445068359375,0.12469482421875,9.427480916030534,-138.74809160305344,-46.908396946564885,704.5871559633028,-40.550458715596335,4.678899082568807,,
1760476690.4063401,0,1.54095458984375,0.12445068359375,0.124755859375,9.427480916030534,-140.70229007633588,-31.27480916030534,657.6146788990826,-41.19266055045871,3.3944954128440368,,
1760476690.4378092,0,1.5411376953125,0.12432861328125,0.124755859375,9.412213740458014,-148.51908396946564,-31.27480916030534,563.6697247706422,-40.550458715596335,4.220183486238533,,
1760476690.4484494,0,1.541259765625,0.12432861328125,0.12469482421875,9.435114503816793,-164.15267175572518,-11.732824427480915,563.6697247706422,-41.19266055045871,4.587155963302752,,
1760476690.4694278,0,1.54144287109375,0.12445068359375,0.12469482421875,9.442748091603054,-150.4732824427481,-35.18320610687023,845.5045871559633,-40.91743119266055,3.853211009174312,,
1760476690.5010636,0,1.54156494140625,0.12445068359375,0.1246337890625,9.412213740458014,-156.33587786259542,-43.0,728.0733944954129,-41.284403669724774,4.495412844036697,,
1760476690.5116978,0,1.541748046875,0.1243896484375,0.12469482421875,9.419847328244275,-140.70229007633588,-44.954198473282446,446.2385321100918,-40.91743119266055,4.495412844036697,,
1760476690.5327215,0,1.5418701171875,0.12451171875,0.124755859375,9.419847328244275,-142.65648854961833,-33.229007633587784,493.2110091743119,-40.91743119266055,4.495412844036697,,
1760476690.5433202,0,1.54205322265625,0.1243896484375,0.124755859375,9.412213740458014,-130.93129770992365,-46.908396946564885,610.6422018348624,-40.825688073394495,4.3119266055045875,,
1760476690.564606,0,1.54217529296875,0.1243896484375,0.12469482421875,9.419847328244275,-160.24427480916032,-35.18320610687023,610.6422018348624,-41.467889908256886,4.495412844036697,,
1760476690.5753653,0,1.5423583984375,0.12451171875,0.124755859375,9.450381679389313,-175.87786259541986,-62.541984732824424,540.1834862385322,-41.10091743119266,5.045871559633028,,
1760476690.5966318,0,1.54248046875,0.1243896484375,0.12469482421875,9.427480916030534,-130.93129770992365,-41.045801526717554,587.1559633027523,-41.284403669724774,3.486238532110092,,
1760476690.6281862,0,1.54266357421875,0.1243896484375,0.12457275390625,9.435114503816793,-119.20610687022901,-52.770992366412216,563.6697247706422,-40.91743119266055,4.495412844036697,,
1760476690.6387413,0,1.54278564453125,0.1243896484375,0.12469482421875,9.427480916030534,-128.9770992366412,-13.687022900763358,610.6422018348624,-41.00917431192661,3.577981651376147,,
1760476690.65985,0,1.54296875,0.12445068359375,0.1246337890625,9.427480916030534,-154.38167938931298,-27.366412213740457,516.6972477064221,-41.559633027522935,4.220183486238533,,
1760476690.6917217,0,1.5430908203125,0.1243896484375,0.12469482421875,9.412213740458014,-142.65648854961833,-56.6793893129771,845.5045871559633,-40.73394495412844,4.495412844036697,,
1760476690.702485,0,1.54327392578125,0.12451171875,0.124755859375,9.412213740458014,-146.5648854961832,-33.229007633587784,681.1009174311927,-40.91743119266055,4.495412844036697,,
1760476690.7233589,0,1.54339599609375,0.12445068359375,0.1248779296875,9.427480916030534,-150.4732824427481,-50.81679389312977,728.0733944954129,-40.550458715596335,4.678899082568807,,
1760476690.733831,0,1.5435791015625,0.12445068359375,0.12469482421875,9.442748091603054,-170.01526717557252,-19.549618320610687,610.6422018348624,-41.467889908256886,3.9449541284403673,,
1760476690.7547524,0,1.543701171875,0.12445068359375,0.1246337890625,9.435114503816793,-134.83969465648855,-54.725190839694655,986.4220183486239,-41.10091743119266,4.128440366972478,,
1760476690.786051,0,1.54388427734375,0.1243896484375,0.1246337890625,9.412213740458014,-150.4732824427481,-19.549618320610687,798.5321100917431,-41.00917431192661,4.220183486238533,,
1760476690.7969358,0,1.54400634765625,0.12451171875,0.124755859375,9.419847328244275,-125.06870229007633,-43.0,516.6972477064221,-41.284403669724774,4.495412844036697,,
1760476690.818391,0,1.544189453125,0.1243896484375,0.124755859375,9.404580152671755,-160.24427480916032,-23.458015267175572,563.6697247706422,-41.467889908256886,4.3119266055045875,,
1760476690.850404,0,1.5443115234375,0.12445068359375,0.124755859375,9.419847328244275,-125.06870229007633,-39.091603053435115,681.1009174311927,-41.10091743119266,3.9449541284403673,,
1760476690.8611307,0,1.54449462890625,0.1243896484375,0.124755859375,9.404580152671755,-201.2824427480916,-19.549618320610687,493.2110091743119,-40.36697247706422,4.036697247706423,,
1760476690.8721132,0,1.54461669921875,0.12445068359375,0.12469482421875,9.427480916030534,-154.38167938931298,-1.9618320610687023,305.3211009174312,-41.10091743119266,4.220183486238533,,
1760476690.9040139,0,1.5447998046875,0.12445068359375,0.12469482421875,9.404580152671755,-154.38167938931298,-11.732824427480915,704.5871559633028,-40.550458715596335,4.3119266055045875,,
1760476690.914855,0,1.544921875,0.12445068359375,0.12469482421875,9.412213740458014,-130.93129770992365,-52.770992366412216,915.9633027522937,-41.19266055045871,4.4036697247706424,,
1760476690.936225,0,1.54510498046875,0.12432861328125,0.1246337890625,9.419847328244275,-121.16030534351145,1.9541984732824427,962.9357798165138,-42.38532110091743,5.045871559633028,,
1760476690.9469593,0,1.54522705078125,0.1243896484375,0.12469482421875,9.435114503816793,-175.87786259541986,-66.45038167938931,751.559633027523,-41.467889908256886,3.9449541284403673,,
1760476690.9684126,0,1.54541015625,0.12445068359375,0.12481689453125,9.427480916030534,-123.1145038167939,-27.366412213740457,868.9908256880734,-41.467889908256886,4.220183486238533,,
1760476691.0003886,0,1.5455322265625,0.12451171875,0.12481689453125,9.435114503816793,-130.93129770992365,-43.0,634.1284403669725,-40.36697247706422,3.853211009174312,,
