timestamp,packet_id,accel_x,accel_y,accel_z,gyro_x,gyro_y,gyro_z,mag_x,mag_y,mag_z,battery,temperature
1760471077.5704188,0,1.689453125,0.1243896484375,0.1246337890625,9.419847328244275,-168.06106870229007,-48.86259541984733,845.5045871559633,-39.08256880733945,4.3119266055045875,,
1760471077.6027734,0,1.6895751953125,0.12432861328125,0.12469482421875,9.442748091603054,-125.06870229007633,-56.6793893129771,751.559633027523,-38.80733944954128,5.321100917431193,,
1760471077.613444,0,1.68975830078125,0.1243896484375,0.124755859375,9.381679389312977,-142.65648854961833,-27.366412213740457,915.9633027522937,-39.357798165137616,4.3119266055045875,,
1760471077.6348956,0,1.68988037109375,0.12432861328125,0.124755859375,9.412213740458014,-144.61068702290078,-46.908396946564885,915.9633027522937,-40.27522935779817,4.954128440366973,,
1760471077.6457057,0,1.6900634765625,0.12432861328125,0.124755859375,9.419847328244275,-181.74045801526717,-48.86259541984733,399.26605504587155,-39.816513761467895,4.678899082568807,,
1760471077.666992,0,1.690185546875,0.1243896484375,0.12469482421875,9.427480916030534,-130.93129770992365,-27.366412213740457,634.1284403669725,-38.899082568807344,4.678899082568807,,
1760471077.6988447,0,1.69036865234375,0.12445068359375,0.1248779296875,9.435114503816793,-148.51908396946564,-21.50381679389313,728.0733944954129,-39.08256880733945,4.4036697247706424,,
1760471077.7095802,0,1.69049072265625,0.12445068359375,0.12469482421875,9.442748091603054,-154.38167938931298,-31.27480916030534,986.4220183486239,-39.357798165137616,4.4036697247706424,,
1760471077.7310262,0,1.690673828125,0.12445068359375,0.12481689453125,9.419847328244275,-187.6030534351145,-37.13740458015267,375.7798165137615,-38.62385321100918,4.862385321100918,,
1760471077.7628243,0,1.6907958984375,0.12432861328125,0.12469482421875,9.404580152671755,-175.87786259541986,-58.63358778625954,422.7522935779817,-39.72477064220183,5.137614678899083,,
1760471077.7735243,0,1.69097900390625,0.1243896484375,0.12469482421875,9.435114503816793,-166.10687022900763,-50.81679389312977,375.7798165137615,-38.71559633027523,4.678899082568807,,
1760471077.7948658,0,1.69110107421875,0.12445068359375,0.12469482421875,9.412213740458014,-166.10687022900763,-39.091603053435115,375.7798165137615,-39.633027522935784,5.229357798165138,,
1760471077.805596,0,1.6912841796875,0.1243896484375,0.12469482421875,9.427480916030534,-171.96946564885496,-44.954198473282446,681.1009174311927,-38.71559633027523,4.4036697247706424,,
1760471077.827005,0,1.69140625,0.12445068359375,0.1246337890625,9.427480916030534,-173.9236641221374,-56.6793893129771,187.88990825688074,-38.899082568807344,4.495412844036697,,
1760471077.8589315,0,1.69158935546875,0.12445068359375,0.124755859375,9.442748091603054,-138.74809160305344,-15.641221374045802,751.559633027523,-39.357798165137616,5.045871559633028,,
1760471077.8697054,0,1.69171142578125,0.12445068359375,0.1248779296875,9.442748091603054,-125.06870229007633,-52.770992366412216,681.1009174311927,-38.99082568807339,5.5045871559633035,,
1760471077.8804946,0,1.69189453125,0.1243896484375,0.1246337890625,9.435114503816793,-154.38167938931298,-43.0,610.6422018348624,-39.357798165137616,4.3119266055045875,,
1760471077.922986,0,1.6920166015625,0.1243896484375,0.12481689453125,9.427480916030534,-130.93129770992365,-74.26717557251908,728.0733944954129,-38.62385321100918,4.3119266055045875,,
1760471077.933508,0,1.69219970703125,0.12445068359375,0.12469482421875,9.427480916030534,-130.93129770992365,-54.725190839694655,657.6146788990826,-38.99082568807339,4.036697247706423,,
1760471077.9542332,0,1.69232177734375,0.12445068359375,0.12481689453125,9.435114503816793,-144.61068702290078,-68.40458015267176,962.9357798165138,-39.174311926605505,4.4036697247706424,,
1760471077.9646587,0,1.6925048828125,0.1243896484375,0.124755859375,9.427480916030534,-162.19847328244273,-46.908396946564885,728.0733944954129,-38.71559633027523,4.770642201834862,,
1760471077.9854603,0,1.692626953125,0.12451171875,0.12469482421875,9.419847328244275,-146.5648854961832,-48.86259541984733,540.1834862385322,-39.08256880733945,4.954128440366973,,
1760471078.0169687,0,1.69281005859375,0.12445068359375,0.12481689453125,9.419847328244275,-170.01526717557252,-82.08396946564885,868.9908256880734,-38.80733944954128,4.862385321100918,,
1760471078.027707,0,1.69293212890625,0.12445068359375,0.124755859375,9.404580152671755,-173.9236641221374,-39.091603053435115,657.6146788990826,-39.44954128440367,4.495412844036697,,
1760471078.048998,0,1.693115234375,0.12451171875,0.124755859375,9.419847328244275,-142.65648854961833,-60.587786259541986,681.1009174311927,-39.72477064220183,4.954128440366973,,
1760471078.0597928,0,1.6932373046875,0.1243896484375,0.1246337890625,9.427480916030534,-166.10687022900763,-17.595419847328245,422.7522935779817,-38.71559633027523,4.4036697247706424,,
1760471078.0811672,0,1.69342041015625,0.1243896484375,0.12481689453125,9.419847328244275,-160.24427480916032,-58.63358778625954,540.1834862385322,-38.71559633027523,4.770642201834862,,
1760471078.1024828,0,1.69354248046875,0.12457275390625,0.12469482421875,9.404580152671755,-156.33587786259542,-44.954198473282446,892.4770642201836,-39.54128440366972,5.321100917431193,,
1760471078.1133587,0,1.6937255859375,0.1243896484375,0.12481689453125,9.412213740458014,-134.83969465648855,-48.86259541984733,681.1009174311927,-39.174311926605505,4.495412844036697,,
1760471078.1453667,0,1.69384765625,0.1243896484375,0.12457275390625,9.404580152671755,-142.65648854961833,-58.63358778625954,610.6422018348624,-39.54128440366972,4.3119266055045875,,
1760471078.1561966,0,1.69403076171875,0.1243896484375,0.12481689453125,9.419847328244275,-173.9236641221374,-27.366412213740457,540.1834862385322,-38.99082568807339,4.036697247706423,,
1760471078.1775475,0,1.69415283203125,0.12445068359375,0.12481689453125,9.412213740458014,-146.5648854961832,-37.13740458015267,422.7522935779817,-38.99082568807339,4.862385321100918,,
1760471078.2094967,0,1.6943359375,0.12432861328125,0.124755859375,9.412213740458014,-107.48091603053435,-60.587786259541986,305.3211009174312,-38.62385321100918,5.045871559633028,,
1760471078.2202845,0,1.6944580078125,0.12445068359375,0.1246337890625,9.404580152671755,-175.87786259541986,-7.824427480916031,305.3211009174312,-38.899082568807344,4.678899082568807,,
1760471078.2416267,0,1.69464111328125,0.12445068359375,0.12469482421875,9.427480916030534,-162.19847328244273,-50.81679389312977,610.6422018348624,-39.08256880733945,4.587155963302752,,
1760471078.263011,0,1.69476318359375,0.1243896484375,0.1246337890625,9.412213740458014,-148.51908396946564,-33.229007633587784,493.2110091743119,-38.80733944954128,4.036697247706423,,
1760471078.273794,0,1.6949462890625,0.12445068359375,0.1246337890625,9.427480916030534,-150.4732824427481,-52.770992366412216,775.045871559633,-39.08256880733945,4.3119266055045875,,
1760471078.2950938,0,1.695068359375,0.12445068359375,0.124755859375,9.419847328244275,-144.61068702290078,-70.3587786259542,305.3211009174312,-39.174311926605505,5.229357798165138,,
1760471078.3060076,0,1.69525146484375,0.1243896484375,0.12481689453125,9.427480916030534,-171.96946564885496,-33.229007633587784,868.9908256880734,-38.899082568807344,4.770642201834862,,
1760471078.3379908,0,1.69537353515625,0.12432861328125,0.124755859375,9.404580152671755,-95.7557251908397,-54.725190839694655,610.6422018348624,-39.26605504587156,4.770642201834862,,
1760471078.3593972,0,1.695556640625,0.12445068359375,0.124755859375,9.419847328244275,-142.65648854961833,-84.0381679389313,587.1559633027523,-39.26605504587156,4.770642201834862,,
1760471078.370144,0,1.6956787109375,0.1243896484375,0.1246337890625,9.435114503816793,-168.06106870229007,-82.08396946564885,634.1284403669725,-38.53211009174312,4.495412844036697,,
1760471078.3914726,0,1.69586181640625,0.12445068359375,0.124755859375,9.412213740458014,-179.78625954198472,-54.725190839694655,540.1834862385322,-39.08256880733945,4.862385321100918,,
1760471078.4340334,0,1.69598388671875,0.12451171875,0.12481689453125,9.412213740458014,-154.38167938931298,-23.458015267175572,516.6972477064221,-38.99082568807339,5.045871559633028,,
1760471078.4447677,0,1.6961669921875,0.12445068359375,0.124755859375,9.419847328244275,-142.65648854961833,-23.458015267175572,751.559633027523,-39.26605504587156,5.137614678899083,,
1760471078.4659858,0,1.6962890625,0.12445068359375,0.1246337890625,9.412213740458014,-160.24427480916032,-54.725190839694655,657.6146788990826,-38.899082568807344,5.596330275229358,,
1760471078.476748,0,1.69647216796875,0.12445068359375,0.1246337890625,9.427480916030534,-187.6030534351145,-56.6793893129771,516.6972477064221,-39.26605504587156,4.770642201834862,,
1760471078.4980872,0,1.69659423828125,0.12432861328125,0.124755859375,9.427480916030534,-130.93129770992365,-44.954198473282446,493.2110091743119,-39.72477064220183,5.045871559633028,,
1760471078.5194502,0,1.69677734375,0.12432861328125,0.12469482421875,9.419847328244275,-130.93129770992365,-29.3206106870229,657.6146788990826,-38.899082568807344,4.587155963302752,,
1760471078.530347,0,1.6968994140625,0.12432861328125,0.12469482421875,9.435114503816793,-123.1145038167939,-85.99236641221374,610.6422018348624,-38.99082568807339,4.770642201834862,,
1760471078.5621052,0,1.69708251953125,0.12432861328125,0.12469482421875,9.435114503816793,-173.9236641221374,-29.3206106870229,775.045871559633,-39.174311926605505,4.954128440366973,,
1760471078.5729003,0,1.69720458984375,0.12445068359375,0.124755859375,9.404580152671755,-168.06106870229007,-58.63358778625954,634.1284403669725,-38.80733944954128,4.678899082568807,,
1760471078.5836391,0,1.6973876953125,0.12445068359375,0.12469482421875,9.435114503816793,-173.9236641221374,-84.0381679389313,634.1284403669725,-38.71559633027523,4.954128440366973,,
1760471078.6153972,0,1.697509765625,0.12432861328125,0.1246337890625,9.412213740458014,-160.24427480916032,-44.954198473282446,798.5321100917431,-38.99082568807339,4.3119266055045875,,
1760471078.626171,0,1.69769287109375,0.12445068359375,0.124755859375,9.435114503816793,-164.15267175572518,-78.17557251908397,610.6422018348624,-38.71559633027523,4.3119266055045875,,
1760471078.6475637,0,1.69781494140625,0.1243896484375,0.124755859375,9.435114503816793,-154.38167938931298,-31.27480916030534,375.7798165137615,-39.72477064220183,4.587155963302752,,
1760471078.6584415,0,1.697998046875,0.12432861328125,0.12469482421875,9.435114503816793,-164.15267175572518,-52.770992366412216,422.7522935779817,-39.633027522935784,5.137614678899083,,
1760471078.690278,0,1.6981201171875,0.1243896484375,0.12469482421875,9.419847328244275,-179.78625954198472,-23.458015267175572,610.6422018348624,-38.899082568807344,4.862385321100918,,
1760471078.7115228,0,1.69830322265625,0.12445068359375,0.12481689453125,9.412213740458014,-170.01526717557252,-62.541984732824424,563.6697247706422,-39.174311926605505,4.770642201834862,,
1760471078.7224,0,1.69842529296875,0.12445068359375,0.124755859375,9.427480916030534,-132.8854961832061,-41.045801526717554,493.2110091743119,-38.07339449541284,4.495412844036697,,
1760471078.7437422,0,1.6986083984375,0.1243896484375,0.124755859375,9.442748091603054,-152.42748091603053,-35.18320610687023,634.1284403669725,-39.633027522935784,4.587155963302752,,
1760471078.7757063,0,1.69873046875,0.12445068359375,0.1248779296875,9.396946564885496,-132.8854961832061,-39.091603053435115,563.6697247706422,-38.71559633027523,4.862385321100918,,
1760471078.7864826,0,1.69891357421875,0.1243896484375,0.1248779296875,9.442748091603054,-162.19847328244273,-66.45038167938931,634.1284403669725,-38.53211009174312,5.5045871559633035,,
1760471078.807849,0,1.69903564453125,0.12445068359375,0.124755859375,9.419847328244275,-170.01526717557252,-43.0,915.9633027522937,-39.174311926605505,4.495412844036697,,
1760471078.8398669,0,1.69921875,0.12445068359375,0.124755859375,9.419847328244275,-134.83969465648855,-48.86259541984733,446.2385321100918,-38.53211009174312,4.3119266055045875,,
1760471078.8506162,0,1.6993408203125,0.12432861328125,0.12469482421875,9.419847328244275,-130.93129770992365,-60.587786259541986,187.88990825688074,-38.99082568807339,4.036697247706423,,
1760471078.8720016,0,1.69952392578125,0.12445068359375,0.12469482421875,9.412213740458014,-148.51908396946564,-46.908396946564885,868.9908256880734,-39.174311926605505,4.678899082568807,,
1760471078.8828142,0,1.69964599609375,0.12445068359375,0.12481689453125,9.427480916030534,-166.10687022900763,-68.40458015267176,728.0733944954129,-39.08256880733945,5.045871559633028,,
1760471078.9042344,0,1.6998291015625,0.12451171875,0.12481689453125,9.435114503816793,-146.5648854961832,-76.22137404580153,822.0183486238533,-39.174311926605505,4.954128440366973,,
1760471078.9361436,0,1.699951171875,0.1243896484375,0.124755859375,9.419847328244275,-140.70229007633588,-25.412213740458014,587.1559633027523,-39.08256880733945,5.045871559633028,,
1760471078.946946,0,1.70013427734375,0.12432861328125,0.124755859375,9.404580152671755,-152.42748091603053,-62.541984732824424,728.0733944954129,-38.80733944954128,4.3119266055045875,,
1760471078.9682558,0,1.70025634765625,0.1243896484375,0.12481689453125,9.419847328244275,-164.15267175572518,-5.870229007633588,657.6146788990826,-38.71559633027523,4.220183486238533,,
1760471078.9995494,0,1.700439453125,0.1243896484375,0.1246337890625,9.404580152671755,-166.10687022900763,-48.86259541984733,634.1284403669725,-38.99082568807339,5.137614678899083,,
1760471079.0102036,0,1.7005615234375,0.12445068359375,0.124755859375,9.419847328244275,-173.9236641221374,-54.725190839694655,516.6972477064221,-38.899082568807344,4.4036697247706424,,
1760471079.0314944,0,1.70074462890625,0.12445068359375,0.12481689453125,9.427480916030534,-144.61068702290078,-82.08396946564885,399.26605504587155,-38.80733944954128,5.5045871559633035,,
1760471079.0629992,0,1.70086669921875,0.12451171875,0.12469482421875,9.427480916030534,-140.70229007633588,-46.908396946564885,469.72477064220186,-39.08256880733945,4.862385321100918,,
1760471079.0737302,0,1.7010498046875,0.1243896484375,0.124755859375,9.412213740458014,-175.87786259541986,-50.81679389312977,540.1834862385322,-39.44954128440367,4.587155963302752,,
1760471079.0844734,0,1.701171875,0.12451171875,0.1248779296875,9.427480916030534,-160.24427480916032,-56.6793893129771,986.4220183486239,-38.99082568807339,4.770642201834862,,
1760471079.0954242,0,1.70135498046875,0.1243896484375,0.12469482421875,9.412213740458014,-187.6030534351145,-48.86259541984733,610.6422018348624,-38.80733944954128,4.770642201834862,,
1760471079.127411,0,1.70147705078125,0.12445068359375,0.12469482421875,9.442748091603054,-148.51908396946564,-66.45038167938931,657.6146788990826,-39.174311926605505,4.495412844036697,,
1760471079.138185,0,1.70166015625,0.124267578125,0.12481689453125,9.412213740458014,-177.8320610687023,-68.40458015267176,798.5321100917431,-38.62385321100918,4.954128440366973,,
1760471079.1490266,0,1.7017822265625,0.1243896484375,0.124755859375,9.419847328244275,-189.55725190839695,-17.595419847328245,657.6146788990826,-39.08256880733945,5.137614678899083,,
1760471079.1807086,0,1.70196533203125,0.12451171875,0.12481689453125,9.419847328244275,-146.5648854961832,-52.770992366412216,352.2935779816514,-38.62385321100918,4.770642201834862,,
1760471079.1913733,0,1.70208740234375,0.12445068359375,0.124755859375,9.396946564885496,-130.93129770992365,-21.50381679389313,375.7798165137615,-39.174311926605505,4.3119266055045875,,
1760471079.212822,0,1.7022705078125,0.12451171875,0.124755859375,9.412213740458014,-154.38167938931298,-60.587786259541986,446.2385321100918,-38.71559633027523,4.495412844036697,,
1760471079.244598,0,1.702392578125,0.12451171875,0.124755859375,9.419847328244275,-144.61068702290078,-23.458015267175572,587.1559633027523,-39.08256880733945,4.495412844036697,,
1760471079.255372,0,1.70257568359375,0.12445068359375,0.1248779296875,9.419847328244275,-168.06106870229007,-23.458015267175572,634.1284403669725,-39.633027522935784,5.229357798165138,,
1760471079.2767844,0,1.70269775390625,0.12451171875,0.12481689453125,9.419847328244275,-177.8320610687023,-66.45038167938931,493.2110091743119,-38.71559633027523,5.137614678899083,,
1760471079.287494,0,1.702880859375,0.12432861328125,0.12469482421875,9.419847328244275,-142.65648854961833,-58.63358778625954,634.1284403669725,-38.80733944954128,4.128440366972478,,
1760471079.3089325,0,1.7030029296875,0.12445068359375,0.124755859375,9.427480916030534,-171.96946564885496,-58.63358778625954,657.6146788990826,-38.80733944954128,4.678899082568807,,
1760471079.3409345,0,1.70318603515625,0.124267578125,0.12469482421875,9.427480916030534,-175.87786259541986,-31.27480916030534,728.0733944954129,-38.80733944954128,4.770642201834862,,
1760471079.3516977,0,1.70330810546875,0.12445068359375,0.124755859375,9.412213740458014,-175.87786259541986,-37.13740458015267,681.1009174311927,-39.08256880733945,4.862385321100918,,
1760471079.3730872,0,1.7034912109375,0.12445068359375,0.12469482421875,9.419847328244275,-162.19847328244273,-58.63358778625954,775.045871559633,-40.18348623853211,5.229357798165138,,
1760471079.404915,0,1.70361328125,0.12432861328125,0.124755859375,9.427480916030534,-148.51908396946564,-17.595419847328245,610.6422018348624,-38.899082568807344,4.3119266055045875,,
1760471079.415699,0,1.70379638671875,0.12451171875,0.124755859375,9.427480916030534,-136.793893129771,-58.63358778625954,634.1284403669725,-38.99082568807339,4.678899082568807,,
1760471079.4369714,0,1.70391845703125,0.1243896484375,0.12469482421875,9.419847328244275,-181.74045801526717,-39.091603053435115,681.1009174311927,-38.440366972477065,4.036697247706423,,
1760471079.468885,0,1.7041015625,0.12445068359375,0.124755859375,9.412213740458014,-150.4732824427481,-50.81679389312977,915.9633027522937,-38.1651376146789,4.954128440366973,,
1760471079.479617,0,1.7042236328125,0.12432861328125,0.1246337890625,9.419847328244275,-146.5648854961832,-68.40458015267176,375.7798165137615,-39.174311926605505,5.321100917431193,,
1760471079.4903665,0,1.70440673828125,0.1243896484375,0.124755859375,9.419847328244275,-179.78625954198472,-48.86259541984733,775.045871559633,-38.899082568807344,5.045871559633028,,
1760471079.5011218,0,1.70452880859375,0.12445068359375,0.124755859375,9.435114503816793,-171.96946564885496,-43.0,751.559633027523,-38.899082568807344,4.862385321100918,,
1760471079.5224347,0,1.7047119140625,0.12432861328125,0.1246337890625,9.419847328244275,-195.4198473282443,-27.366412213740457,328.8073394495413,-39.174311926605505,4.495412844036697,,
1760471079.5541556,0,1.704833984375,0.12445068359375,0.12469482421875,9.412213740458014,-146.5648854961832,-60.587786259541986,587.1559633027523,-39.357798165137616,4.4036697247706424,,
1760471079.564902,0,1.70501708984375,0.12445068359375,0.124755859375,9.419847328244275,-173.9236641221374,-27.366412213740457,493.2110091743119,-39.08256880733945,4.954128440366973,,
1760471079.5862157,0,1.70513916015625,0.1243896484375,0.12469482421875,9.404580152671755,-146.5648854961832,-37.13740458015267,822.0183486238533,-39.26605504587156,5.5045871559633035,,
1760471079.6179714,0,1.705322265625,0.12432861328125,0.1246337890625,9.442748091603054,-160.24427480916032,-43.0,610.6422018348624,-39.54128440366972,5.229357798165138,,
1760471079.6288579,0,1.7054443359375,0.12432861328125,0.124755859375,9.427480916030534,-148.51908396946564,-60.587786259541986,469.72477064220186,-38.62385321100918,4.770642201834862,,
1760471079.6501315,0,1.70562744140625,0.12432861328125,0.12469482421875,9.412213740458014,-158.29007633587787,-39.091603053435115,305.3211009174312,-39.174311926605505,4.495412844036697,,
1760471079.6819482,0,1.70574951171875,0.12445068359375,0.124755859375,9.435114503816793,-160.24427480916032,-50.81679389312977,469.72477064220186,-39.08256880733945,4.587155963302752,,
1760471079.6926131,0,1.7059326171875,0.12445068359375,0.124755859375,9.419847328244275,-154.38167938931298,-46.908396946564885,563.6697247706422,-39.08256880733945,4.862385321100918,,
1760471079.7140741,0,1.7060546875,0.12445068359375,0.124755859375,9.412213740458014,-140.70229007633588,-35.18320610687023,775.045871559633,-38.53211009174312,4.862385321100918,,
1760471079.7249274,0,1.70623779296875,0.12432861328125,0.12481689453125,9.404580152671755,-140.70229007633588,-80.12977099236642,704.5871559633028,-38.53211009174312,5.229357798165138,,
1760471079.7462096,0,1.70635986328125,0.1243896484375,0.12469482421875,9.419847328244275,-128.9770992366412,-48.86259541984733,375.7798165137615,-39.357798165137616,4.770642201834862,,
1760471079.7568457,0,1.70654296875,0.12445068359375,0.124755859375,9.427480916030534,-121.16030534351145,-56.6793893129771,516.6972477064221,-38.899082568807344,4.862385321100918,,
1760471079.7781863,0,1.7066650390625,0.1243896484375,0.12469482421875,9.427480916030534,-162.19847328244273,-39.091603053435115,751.559633027523,-38.899082568807344,4.587155963302752,,
1760471079.809929,0,1.70684814453125,0.1243896484375,0.124755859375,9.404580152671755,-128.9770992366412,-58.63358778625954,587.1559633027523,-38.62385321100918,4.770642201834862,,
1760471079.8207252,0,1.70697021484375,0.12445068359375,0.1248779296875,9.412213740458014,-160.24427480916032,-37.13740458015267,634.1284403669725,-38.80733944954128,4.678899082568807,,
1760471079.842089,0,1.7071533203125,0.12445068359375,0.124755859375,9.419847328244275,-166.10687022900763,-13.687022900763358,610.6422018348624,-38.71559633027523,4.587155963302752,,
1760471079.8738616,0,1.707275390625,0.12445068359375,0.124755859375,9.412213740458014,-170.01526717557252,-29.3206106870229,516.6972477064221,-39.174311926605505,4.4036697247706424,,
1760471079.8843086,0,1.70745849609375,0.12432861328125,0.124755859375,9.427480916030534,-166.10687022900763,-39.091603053435115,751.559633027523,-39.08256880733945,4.862385321100918,,
1760471079.8951418,0,1.70758056640625,0.12445068359375,0.124755859375,9.412213740458014,-132.8854961832061,-50.81679389312977,587.1559633027523,-39.08256880733945,4.587155963302752,,
1760471079.9060345,0,1.707763671875,0.1243896484375,0.1246337890625,9.419847328244275,-123.1145038167939,-50.81679389312977,868.9908256880734,-39.174311926605505,4.128440366972478,,
1760471079.9273598,0,1.7078857421875,0.12451171875,0.12457275390625,9.435114503816793,-128.9770992366412,-52.770992366412216,422.7522935779817,-38.71559633027523,4.036697247706423,,
1760471079.9592237,0,1.70806884765625,0.12432861328125,0.124755859375,9.419847328244275,-150.4732824427481,-37.13740458015267,563.6697247706422,-39.26605504587156,4.587155963302752,,
1760471079.9699378,0,1.70819091796875,0.12451171875,0.1248779296875,9.435114503816793,-130.93129770992365,-50.81679389312977,610.6422018348624,-38.99082568807339,4.862385321100918,,
1760471079.9913464,0,1.7083740234375,0.1243896484375,0.124755859375,9.427480916030534,-156.33587786259542,-78.17557251908397,704.5871559633028,-39.357798165137616,5.137614678899083,,
1760471080.023201,0,1.70849609375,0.12445068359375,0.12481689453125,9.412213740458014,-148.51908396946564,-54.725190839694655,634.1284403669725,-38.99082568807339,4.587155963302752,,
1760471080.0337138,0,1.70867919921875,0.1243896484375,0.124755859375,9.427480916030534,-144.61068702290078,-33.229007633587784,704.5871559633028,-39.174311926605505,4.587155963302752,,
1760471080.0561194,0,1.70880126953125,0.12451171875,0.1248779296875,9.427480916030534,-123.1145038167939,-64.49618320610686,681.1009174311927,-39.54128440366972,4.3119266055045875,,
1760471080.0871522,0,1.708984375,0.12445068359375,0.124755859375,9.412213740458014,-187.6030534351145,-72.31297709923665,375.7798165137615,-38.80733944954128,4.770642201834862,,
1760471080.0975475,0,1.7091064453125,0.12451171875,0.1248779296875,9.404580152671755,-160.24427480916032,-35.18320610687023,563.6697247706422,-38.71559633027523,5.137614678899083,,
1760471080.118274,0,1.70928955078125,0.1243896484375,0.1246337890625,9.419847328244275,-162.19847328244273,-35.18320610687023,822.0183486238533,-38.899082568807344,5.779816513761468,,
1760471080.130977,0,1.70941162109375,0.1243896484375,0.124755859375,9.419847328244275,-162.19847328244273,-58.63358778625954,493.2110091743119,-39.08256880733945,4.678899082568807,,
1760471080.151826,0,1.7095947265625,0.12445068359375,0.1246337890625,9.419847328244275,-121.16030534351145,7.816793893129771,681.1009174311927,-39.08256880733945,4.770642201834862,,
1760471080.1834183,0,1.709716796875,0.12445068359375,0.124755859375,9.435114503816793,-138.74809160305344,-35.18320610687023,728.0733944954129,-38.53211009174312,4.220183486238533,,
1760471080.1937819,0,1.70989990234375,0.1243896484375,0.12457275390625,9.427480916030534,-144.61068702290078,-46.908396946564885,399.26605504587155,-39.08256880733945,4.587155963302752,,
1760471080.2152233,0,1.71002197265625,0.1243896484375,0.12469482421875,9.419847328244275,-154.38167938931298,-31.27480916030534,798.5321100917431,-39.08256880733945,4.678899082568807,,
1760471080.2471247,0,1.710205078125,0.1243896484375,0.124755859375,9.412213740458014,-136.793893129771,-50.81679389312977,540.1834862385322,-39.26605504587156,5.229357798165138,,
1760471080.2575352,0,1.7103271484375,0.1243896484375,0.12469482421875,9.435114503816793,-142.65648854961833,-64.49618320610686,775.045871559633,-39.26605504587156,4.770642201834862,,
1760471080.2698722,0,1.71051025390625,0.12451171875,0.12469482421875,9.435114503816793,-146.5648854961832,-43.0,775.045871559633,-39.54128440366972,4.678899082568807,,
1760471080.3028424,0,1.71063232421875,0.12451171875,0.12481689453125,9.412213740458014,-162.19847328244273,0.0,962.9357798165138,-38.71559633027523,4.587155963302752,,
1760471080.3132432,0,1.7108154296875,0.12445068359375,0.1246337890625,9.419847328244275,-119.20610687022901,-64.49618320610686,399.26605504587155,-39.174311926605505,4.678899082568807,,
1760471080.3372831,0,1.7109375,0.12445068359375,0.12469482421875,9.427480916030534,-164.15267175572518,-62.541984732824424,751.559633027523,-38.80733944954128,4.954128440366973,,
1760471080.3478458,0,1.71112060546875,0.12432861328125,0.124755859375,9.427480916030534,-142.65648854961833,-68.40458015267176,845.5045871559633,-39.357798165137616,4.954128440366973,,
1760471080.3687603,0,1.71124267578125,0.1243896484375,0.12469482421875,9.419847328244275,-136.793893129771,-37.13740458015267,915.9633027522937,-39.357798165137616,5.412844036697248,,
1760471080.3792367,0,1.71142578125,0.12445068359375,0.124755859375,9.419847328244275,-175.87786259541986,-66.45038167938931,516.6972477064221,-38.80733944954128,4.862385321100918,,
1760471080.400225,0,1.7115478515625,0.12445068359375,0.124755859375,9.435114503816793,-152.42748091603053,-29.3206106870229,681.1009174311927,-38.1651376146789,3.9449541284403673,,
1760471080.431949,0,1.71173095703125,0.12451171875,0.1246337890625,9.412213740458014,-173.9236641221374,-37.13740458015267,352.2935779816514,-38.53211009174312,5.045871559633028,,
1760471080.442747,0,1.71185302734375,0.12451171875,0.12469482421875,9.412213740458014,-146.5648854961832,-43.0,587.1559633027523,-39.44954128440367,4.678899082568807,,
1760471080.4640353,0,1.7120361328125,0.1243896484375,0.12469482421875,9.404580152671755,-123.1145038167939,-78.17557251908397,516.6972477064221,-39.54128440366972,5.5045871559633035,,
1760471080.4957674,0,1.712158203125,0.1243896484375,0.12481689453125,9.435114503816793,-142.65648854961833,-29.3206106870229,657.6146788990826,-39.26605504587156,4.770642201834862,,
1760471080.5064425,0,1.71234130859375,0.12445068359375,0.124755859375,9.435114503816793,-142.65648854961833,-72.31297709923665,328.8073394495413,-38.71559633027523,4.770642201834862,,
1760471080.5278523,0,1.71246337890625,0.1243896484375,0.12481689453125,9.419847328244275,-146.5648854961832,-54.725190839694655,962.9357798165138,-39.357798165137616,4.128440366972478,,
1760471080.5385888,0,1.712646484375,0.12445068359375,0.1246337890625,9.419847328244275,-175.87786259541986,-37.13740458015267,610.6422018348624,-38.899082568807344,4.587155963302752,,
1760471080.5598726,0,1.7127685546875,0.1243896484375,0.124755859375,9.435114503816793,-164.15267175572518,-52.770992366412216,563.6697247706422,-38.99082568807339,4.770642201834862,,
1760471080.5915542,0,1.71295166015625,0.1243896484375,0.1246337890625,9.435114503816793,-148.51908396946564,-58.63358778625954,328.8073394495413,-38.899082568807344,5.321100917431193,,
1760471080.6022859,0,1.71307373046875,0.12445068359375,0.12481689453125,9.442748091603054,-138.74809160305344,-64.49618320610686,469.72477064220186,-39.26605504587156,4.678899082568807,,
1760471080.623737,0,1.7132568359375,0.1243896484375,0.124755859375,9.427480916030534,-173.9236641221374,-31.27480916030534,610.6422018348624,-38.899082568807344,4.770642201834862,,
1760471080.6450956,0,1.71337890625,0.1243896484375,0.124755859375,9.419847328244275,-121.16030534351145,-52.770992366412216,493.2110091743119,-38.80733944954128,4.770642201834862,,
1760471080.6558957,0,1.71356201171875,0.1243896484375,0.124755859375,9.419847328244275,-164.15267175572518,-29.3206106870229,493.2110091743119,-38.1651376146789,4.678899082568807,,
1760471080.687617,0,1.71368408203125,0.12432861328125,0.1246337890625,9.427480916030534,-158.29007633587787,-58.63358778625954,704.5871559633028,-40.0,5.137614678899083,,
1760471080.7088661,0,1.7138671875,0.12451171875,0.12469482421875,9.412213740458014,-158.29007633587787,-56.6793893129771,728.0733944954129,-38.80733944954128,5.688073394495413,,
1760471080.7197788,0,1.7139892578125,0.1243896484375,0.12469482421875,9.412213740458014,-140.70229007633588,-33.229007633587784,704.5871559633028,-39.357798165137616,4.587155963302752,,
1760471080.7410882,0,1.71417236328125,0.12432861328125,0.12469482421875,9.419847328244275,-134.83969465648855,-68.40458015267176,728.0733944954129,-38.62385321100918,5.045871559633028,,
1760471080.751905,0,1.71429443359375,0.12451171875,0.12469482421875,9.419847328244275,-146.5648854961832,-37.13740458015267,563.6697247706422,-39.08256880733945,4.220183486238533,,
1760471080.7731874,0,1.7144775390625,0.1243896484375,0.12469482421875,9.419847328244275,-171.96946564885496,-31.27480916030534,657.6146788990826,-39.174311926605505,4.862385321100918,,
1760471080.804961,0,1.714599609375,0.12451171875,0.1246337890625,9.419847328244275,-207.14503816793894,-31.27480916030534,540.1834862385322,-38.80733944954128,4.954128440366973,,
1760471080.8156807,0,1.71478271484375,0.12445068359375,0.12481689453125,9.435114503816793,-160.24427480916032,-19.549618320610687,469.72477064220186,-39.633027522935784,4.587155963302752,,
1760471080.8369927,0,1.71490478515625,0.1243896484375,0.124755859375,9.419847328244275,-170.01526717557252,-31.27480916030534,587.1559633027523,-40.0,4.954128440366973,,
1760471080.8687105,0,1.715087890625,0.12445068359375,0.12481689453125,9.412213740458014,-127.02290076335878,-27.366412213740457,422.7522935779817,-39.08256880733945,4.4036697247706424,,
1760471080.8793848,0,1.7152099609375,0.1243896484375,0.12481689453125,9.412213740458014,-119.20610687022901,23.450381679389313,587.1559633027523,-38.53211009174312,4.495412844036697,,
1760471080.900605,0,1.71539306640625,0.12451171875,0.12481689453125,9.419847328244275,-117.25190839694656,-9.778625954198473,798.5321100917431,-39.08256880733945,4.495412844036697,,
1760471080.9324677,0,1.71551513671875,0.12451171875,0.124755859375,9.427480916030534,-152.42748091603053,-43.0,540.1834862385322,-39.26605504587156,5.045871559633028,,
1760471080.9432466,0,1.7156982421875,0.1243896484375,0.124755859375,9.404580152671755,-158.29007633587787,-46.908396946564885,915.9633027522937,-39.26605504587156,5.229357798165138,,
1760471080.964528,0,1.7158203125,0.12451171875,0.12469482421875,9.427480916030534,-158.29007633587787,-52.770992366412216,563.6697247706422,-38.80733944954128,5.045871559633028,,
1760471080.996375,0,1.71600341796875,0.12432861328125,0.12469482421875,9.404580152671755,-166.10687022900763,-43.0,446.2385321100918,-38.80733944954128,4.678899082568807,,
1760471081.0071893,0,1.71612548828125,0.12451171875,0.12469482421875,9.419847328244275,-132.8854961832061,-11.732824427480915,328.8073394495413,-39.174311926605505,4.587155963302752,,
1760471081.0179358,0,1.71630859375,0.12445068359375,0.12481689453125,9.427480916030534,-156.33587786259542,-5.870229007633588,493.2110091743119,-38.899082568807344,5.321100917431193,,
1760471081.0288215,0,1.7164306640625,0.1243896484375,0.124755859375,9.435114503816793,-156.33587786259542,-46.908396946564885,446.2385321100918,-39.08256880733945,4.495412844036697,,
1760471081.0604954,0,1.71661376953125,0.12451171875,0.124755859375,9.419847328244275,-160.24427480916032,-33.229007633587784,634.1284403669725,-39.08256880733945,5.321100917431193,,
1760471081.0713131,0,1.71673583984375,0.12451171875,0.12469482421875,9.419847328244275,-162.19847328244273,-39.091603053435115,516.6972477064221,-39.357798165137616,4.954128440366973,,
1760471081.0927749,0,1.7169189453125,0.1243896484375,0.12469482421875,9.435114503816793,-152.42748091603053,-25.412213740458014,563.6697247706422,-39.08256880733945,5.229357798165138,,
1760471081.1035163,0,1.717041015625,0.12451171875,0.12469482421875,9.412213740458014,-160.24427480916032,-48.86259541984733,751.559633027523,-38.62385321100918,4.587155963302752,,
1760471081.125082,0,1.71722412109375,0.12445068359375,0.1248779296875,9.412213740458014,-128.9770992366412,-25.412213740458014,446.2385321100918,-38.62385321100918,4.954128440366973,,
1760471081.1569695,0,1.71734619140625,0.1243896484375,0.1246337890625,9.427480916030534,-152.42748091603053,-44.954198473282446,422.7522935779817,-38.80733944954128,4.862385321100918,,
1760471081.1676352,0,1.717529296875,0.12451171875,0.124755859375,9.435114503816793,-148.51908396946564,-23.458015267175572,681.1009174311927,-39.357798165137616,5.229357798165138,,
1760471081.189025,0,1.7176513671875,0.1243896484375,0.124755859375,9.404580152671755,-142.65648854961833,-43.0,540.1834862385322,-38.62385321100918,4.862385321100918,,
1760471081.210493,0,1.71783447265625,0.12445068359375,0.12481689453125,9.419847328244275,-146.5648854961832,-72.31297709923665,751.559633027523,-38.899082568807344,4.128440366972478,,
1760471081.22127,0,1.71795654296875,0.12445068359375,0.124755859375,9.427480916030534,-171.96946564885496,-70.3587786259542,516.6972477064221,-38.62385321100918,4.128440366972478,,
1760471081.2425885,0,1.7181396484375,0.1243896484375,0.12469482421875,9.412213740458014,-140.70229007633588,-37.13740458015267,587.1559633027523,-39.26605504587156,5.688073394495413,,
1760471081.27447,0,1.71826171875,0.1243896484375,0.124755859375,9.412213740458014,-166.10687022900763,-60.587786259541986,751.559633027523,-39.08256880733945,4.495412844036697,,
1760471081.2852287,0,1.71844482421875,0.1243896484375,0.1246337890625,9.412213740458014,-175.87786259541986,-19.549618320610687,1127.3394495412845,-39.08256880733945,5.412844036697248,,
1760471081.3065453,0,1.71856689453125,0.12445068359375,0.12481689453125,9.419847328244275,-154.38167938931298,-37.13740458015267,610.6422018348624,-39.174311926605505,4.128440366972478,,
1760471081.3384476,0,1.71875,0.12445068359375,0.1246337890625,9.435114503816793,-166.10687022900763,-13.687022900763358,563.6697247706422,-38.99082568807339,4.587155963302752,,
1760471081.3492324,0,1.7188720703125,0.12432861328125,0.124755859375,9.419847328244275,-160.24427480916032,-46.908396946564885,540.1834862385322,-39.44954128440367,4.3119266055045875,,
1760471081.3705719,0,1.71905517578125,0.12445068359375,0.124755859375,9.419847328244275,-142.65648854961833,-56.6793893129771,681.1009174311927,-38.80733944954128,4.587155963302752,,
1760471081.3813787,0,1.71917724609375,0.12451171875,0.124755859375,9.412213740458014,-166.10687022900763,-58.63358778625954,704.5871559633028,-39.357798165137616,4.678899082568807,,
1760471081.4028661,0,1.7193603515625,0.12451171875,0.1246337890625,9.412213740458014,-134.83969465648855,-72.31297709923665,93.94495412844037,-40.0,5.229357798165138,,
1760471081.434835,0,1.719482421875,0.12445068359375,0.1246337890625,9.412213740458014,-168.06106870229007,-35.18320610687023,962.9357798165138,-39.816513761467895,5.045871559633028,,
1760471081.4456081,0,1.71966552734375,0.12451171875,0.124755859375,9.412213740458014,-168.06106870229007,-60.587786259541986,516.6972477064221,-38.99082568807339,4.4036697247706424,,
1760471081.4669948,0,1.71978759765625,0.1243896484375,0.12469482421875,9.427480916030534,-134.83969465648855,-7.824427480916031,751.559633027523,-38.34862385321101,4.128440366972478,,
1760471081.4989033,0,1.719970703125,0.12445068359375,0.12481689453125,9.419847328244275,-162.19847328244273,-56.6793893129771,634.1284403669725,-39.08256880733945,4.3119266055045875,,
1760471081.5096836,0,1.7200927734375,0.1243896484375,0.12469482421875,9.404580152671755,-160.24427480916032,-41.045801526717554,751.559633027523,-39.357798165137616,4.678899082568807,,
1760471081.5204084,0,1.72027587890625,0.12445068359375,0.1246337890625,9.404580152671755,-152.42748091603053,-46.908396946564885,610.6422018348624,-38.99082568807339,4.862385321100918,,
1760471081.5523012,0,1.72039794921875,0.1243896484375,0.124755859375,9.419847328244275,-160.24427480916032,-11.732824427480915,634.1284403669725,-38.99082568807339,4.678899082568807,,
1760471081.5629537,0,1.7205810546875,0.12445068359375,0.124755859375,9.427480916030534,-144.61068702290078,-33.229007633587784,493.2110091743119,-39.72477064220183,4.954128440366973,,
1760471081.5841768,0,1.720703125,0.1243896484375,0.12481689453125,9.427480916030534,-136.793893129771,-52.770992366412216,986.4220183486239,-38.99082568807339,4.4036697247706424,,
1760471081.5950277,0,1.72088623046875,0.12445068359375,0.12469482421875,9.435114503816793,-150.4732824427481,-43.0,399.26605504587155,-39.174311926605505,4.4036697247706424,,
1760471081.6163673,0,1.72100830078125,0.1243896484375,0.1248779296875,9.427480916030534,-138.74809160305344,-25.412213740458014,657.6146788990826,-39.08256880733945,4.770642201834862,,
1760471081.6271164,0,1.72119140625,0.12445068359375,0.12493896484375,9.427480916030534,-132.8854961832061,-44.954198473282446,587.1559633027523,-38.71559633027523,5.045871559633028,,
1760471081.6484435,0,1.7213134765625,0.1243896484375,0.12481689453125,9.419847328244275,-158.29007633587787,-62.541984732824424,587.1559633027523,-39.26605504587156,5.045871559633028,,
1760471081.6803808,0,1.72149658203125,0.12451171875,0.12469482421875,9.427480916030534,-168.06106870229007,-70.3587786259542,751.559633027523,-39.26605504587156,4.495412844036697,,
1760471081.6911664,0,1.72161865234375,0.12445068359375,0.124755859375,9.412213740458014,-138.74809160305344,-35.18320610687023,681.1009174311927,-38.62385321100918,4.495412844036697,,
1760471081.7125547,0,1.7218017578125,0.1243896484375,0.12469482421875,9.404580152671755,-115.29770992366412,-52.770992366412216,469.72477064220186,-39.44954128440367,4.587155963302752,,
1760471081.7444339,0,1.721923828125,0.12432861328125,0.12481689453125,9.442748091603054,-170.01526717557252,-33.229007633587784,986.4220183486239,-38.80733944954128,4.862385321100918,,
1760471081.7552035,0,1.72210693359375,0.12445068359375,0.1248779296875,9.412213740458014,-156.33587786259542,-23.458015267175572,657.6146788990826,-39.54128440366972,5.137614678899083,,
1760471081.77657,0,1.72222900390625,0.12445068359375,0.1248779296875,9.419847328244275,-130.93129770992365,-52.770992366412216,798.5321100917431,-38.25688073394495,5.045871559633028,,
1760471081.808538,0,1.722412109375,0.12445068359375,0.124755859375,9.412213740458014,-154.38167938931298,-85.99236641221374,775.045871559633,-39.72477064220183,4.587155963302752,,
1760471081.819352,0,1.7225341796875,0.124267578125,0.1246337890625,9.427480916030534,-136.793893129771,-58.63358778625954,469.72477064220186,-38.62385321100918,4.587155963302752,,
1760471081.8407211,0,1.72271728515625,0.12445068359375,0.1246337890625,9.427480916030534,-168.06106870229007,-35.18320610687023,328.8073394495413,-38.99082568807339,4.862385321100918,,
1760471081.8514352,0,1.72283935546875,0.1243896484375,0.124755859375,9.412213740458014,-142.65648854961833,-82.08396946564885,822.0183486238533,-39.357798165137616,5.045871559633028,,
1760471081.8729067,0,1.7230224609375,0.1243896484375,0.12469482421875,9.427480916030534,-117.25190839694656,-109.44274809160305,751.559633027523,-39.908256880733944,5.321100917431193,,
1760471081.8942058,0,1.72314453125,0.1243896484375,0.12469482421875,9.419847328244275,-134.83969465648855,-62.541984732824424,422.7522935779817,-39.174311926605505,4.678899082568807,,
1760471081.90492,0,1.72332763671875,0.12445068359375,0.12481689453125,9.427480916030534,-183.6946564885496,-58.63358778625954,446.2385321100918,-38.53211009174312,4.587155963302752,,
1760471081.9262264,0,1.72344970703125,0.1243896484375,0.124755859375,9.419847328244275,-199.32824427480915,-58.63358778625954,610.6422018348624,-38.80733944954128,4.862385321100918,,
1760471081.9580007,0,1.7236328125,0.1243896484375,0.12469482421875,9.427480916030534,-127.02290076335878,-64.49618320610686,93.94495412844037,-39.174311926605505,4.4036697247706424,,
1760471081.968801,0,1.7237548828125,0.12445068359375,0.1246337890625,9.412213740458014,-123.1145038167939,-43.0,610.6422018348624,-39.26605504587156,4.954128440366973,,
1760471081.9901352,0,1.72393798828125,0.1243896484375,0.12469482421875,9.435114503816793,-150.4732824427481,-43.0,540.1834862385322,-39.816513761467895,4.954128440366973,,
1760471082.0008833,0,1.72406005859375,0.1243896484375,0.12469482421875,9.427480916030534,-171.96946564885496,-19.549618320610687,634.1284403669725,-38.899082568807344,4.587155963302752,,
1760471082.0222402,0,1.7242431640625,0.12445068359375,0.12469482421875,9.419847328244275,-136.793893129771,-52.770992366412216,422.7522935779817,-39.357798165137616,4.862385321100918,,
1760471082.0540416,0,1.724365234375,0.12445068359375,0.12481689453125,9.419847328244275,-189.55725190839695,-50.81679389312977,328.8073394495413,-38.71559633027523,4.678899082568807,,
1760471082.064596,0,1.72454833984375,0.12432861328125,0.124755859375,9.412213740458014,-111.38931297709924,-46.908396946564885,446.2385321100918,-39.633027522935784,4.495412844036697,,
1760471082.0858488,0,1.72467041015625,0.1243896484375,0.12469482421875,9.412213740458014,-144.61068702290078,-31.27480916030534,681.1009174311927,-38.71559633027523,5.321100917431193,,
1760471082.1177533,0,1.724853515625,0.12445068359375,0.1246337890625,9.427480916030534,-154.38167938931298,-52.770992366412216,610.6422018348624,-39.54128440366972,4.770642201834862,,
1760471082.1284685,0,1.7249755859375,0.1243896484375,0.124755859375,9.427480916030534,-146.5648854961832,-62.541984732824424,399.26605504587155,-39.174311926605505,4.495412844036697,,
1760471082.149847,0,1.72515869140625,0.12457275390625,0.12469482421875,9.396946564885496,-132.8854961832061,-54.725190839694655,704.5871559633028,-38.99082568807339,4.495412844036697,,
1760471082.1815033,0,1.72528076171875,0.1243896484375,0.1248779296875,9.427480916030534,-171.96946564885496,-54.725190839694655,634.1284403669725,-39.26605504587156,4.587155963302752,,
1760471082.1921945,0,1.7254638671875,0.12445068359375,0.1248779296875,9.412213740458014,-201.2824427480916,-50.81679389312977,657.6146788990826,-38.53211009174312,5.321100917431193,,
1760471082.213525,0,1.7255859375,0.1243896484375,0.12481689453125,9.427480916030534,-146.5648854961832,-44.954198473282446,610.6422018348624,-39.54128440366972,5.229357798165138,,
1760471082.245517,0,1.72576904296875,0.1243896484375,0.12469482421875,9.427480916030534,-171.96946564885496,-33.229007633587784,305.3211009174312,-38.99082568807339,5.137614678899083,,
1760471082.2563708,0,1.72589111328125,0.12432861328125,0.12469482421875,9.427480916030534,-148.51908396946564,-48.86259541984733,775.045871559633,-39.54128440366972,4.3119266055045875,,
1760471082.2672627,0,1.72607421875,0.12445068359375,0.12481689453125,9.404580152671755,-160.24427480916032,-52.770992366412216,915.9633027522937,-38.80733944954128,4.587155963302752,,
1760471082.2780008,0,1.7261962890625,0.12451171875,0.12469482421875,9.419847328244275,-160.24427480916032,-58.63358778625954,634.1284403669725,-39.26605504587156,4.678899082568807,,
1760471082.299323,0,1.72637939453125,0.1243896484375,0.12469482421875,9.427480916030534,-177.8320610687023,-44.954198473282446,634.1284403669725,-38.899082568807344,4.862385321100918,,
1760471082.3100467,0,1.72650146484375,0.124267578125,0.12469482421875,9.442748091603054,-156.33587786259542,-68.40458015267176,328.8073394495413,-38.99082568807339,4.678899082568807,,
1760471082.3314524,0,1.7266845703125,0.1243896484375,0.12481689453125,9.419847328244275,-138.74809160305344,-62.541984732824424,915.9633027522937,-39.357798165137616,5.321100917431193,,
1760471082.3634312,0,1.726806640625,0.12445068359375,0.12481689453125,9.412213740458014,-109.43511450381679,-37.13740458015267,704.5871559633028,-39.174311926605505,4.587155963302752,,
1760471082.3742425,0,1.72698974609375,0.1243896484375,0.124755859375,9.419847328244275,-142.65648854961833,-66.45038167938931,516.6972477064221,-38.99082568807339,3.9449541284403673,,
1760471082.3957038,0,1.72711181640625,0.12445068359375,0.12469482421875,9.427480916030534,-166.10687022900763,-66.45038167938931,516.6972477064221,-39.44954128440367,4.3119266055045875,,
1760471082.4276075,0,1.727294921875,0.1243896484375,0.12493896484375,9.412213740458014,-160.24427480916032,-41.045801526717554,751.559633027523,-39.44954128440367,5.045871559633028,,
1760471082.4383996,0,1.7274169921875,0.12432861328125,0.12457275390625,9.427480916030534,-150.4732824427481,-27.366412213740457,446.2385321100918,-38.80733944954128,4.3119266055045875,,
1760471082.4598038,0,1.72760009765625,0.12445068359375,0.12469482421875,9.412213740458014,-140.70229007633588,-31.27480916030534,681.1009174311927,-39.26605504587156,4.770642201834862,,
1760471082.4705508,0,1.72772216796875,0.12445068359375,0.1246337890625,9.396946564885496,-164.15267175572518,-27.366412213740457,681.1009174311927,-39.357798165137616,4.587155963302752,,
1760471082.4920313,0,1.7279052734375,0.1243896484375,0.124755859375,9.412213740458014,-156.33587786259542,-64.49618320610686,892.4770642201836,-39.174311926605505,5.229357798165138,,
1760471082.5239952,0,1.72802734375,0.12445068359375,0.12469482421875,9.396946564885496,-128.9770992366412,-33.229007633587784,728.0733944954129,-38.99082568807339,4.678899082568807,,
1760471082.5347784,0,1.72821044921875,0.1243896484375,0.12469482421875,9.412213740458014,-150.4732824427481,-25.412213740458014,751.559633027523,-38.80733944954128,4.128440366972478,,
1760471082.5562499,0,1.72833251953125,0.12451171875,0.1246337890625,9.412213740458014,-130.93129770992365,-72.31297709923665,704.5871559633028,-39.357798165137616,4.036697247706423,,
1760471082.5880933,0,1.728515625,0.1243896484375,0.12481689453125,9.442748091603054,-128.9770992366412,-13.687022900763358,493.2110091743119,-38.899082568807344,4.954128440366973,,
1760471082.5988886,0,1.7286376953125,0.12445068359375,0.12469482421875,9.435114503816793,-160.24427480916032,-46.908396946564885,704.5871559633028,-39.174311926605505,4.678899082568807,,
1760471082.620288,0,1.72882080078125,0.1243896484375,0.1246337890625,9.435114503816793,-171.96946564885496,-35.18320610687023,493.2110091743119,-39.54128440366972,5.045871559633028,,
1760471082.6310372,0,1.72894287109375,0.1243896484375,0.124755859375,9.435114503816793,-148.51908396946564,-99.67175572519083,704.5871559633028,-39.174311926605505,4.495412844036697,,
1760471082.65251,0,1.7291259765625,0.12432861328125,0.1246337890625,9.419847328244275,-138.74809160305344,-64.49618320610686,681.1009174311927,-39.08256880733945,4.862385321100918,,
1760471082.6844418,0,1.729248046875,0.12445068359375,0.12481689453125,9.435114503816793,-171.96946564885496,-37.13740458015267,610.6422018348624,-38.899082568807344,4.3119266055045875,,
1760471082.695224,0,1.72943115234375,0.12432861328125,0.1246337890625,9.419847328244275,-170.01526717557252,-43.0,587.1559633027523,-39.357798165137616,4.862385321100918,,
1760471082.716618,0,1.72955322265625,0.12445068359375,0.1246337890625,9.412213740458014,-128.9770992366412,-50.81679389312977,775.045871559633,-39.08256880733945,4.4036697247706424,,
1760471082.7379942,0,1.729736328125,0.12445068359375,0.124755859375,9.419847328244275,-162.19847328244273,-25.412213740458014,516.6972477064221,-39.26605504587156,4.678899082568807,,
1760471082.7488427,0,1.7298583984375,0.12445068359375,0.12469482421875,9.419847328244275,-158.29007633587787,-60.587786259541986,775.045871559633,-39.54128440366972,4.770642201834862,,
1760471082.770013,0,1.73004150390625,0.12432861328125,0.1246337890625,9.435114503816793,-171.96946564885496,-62.541984732824424,657.6146788990826,-39.54128440366972,5.045871559633028,,
1760471082.801766,0,1.73016357421875,0.1243896484375,0.12469482421875,9.419847328244275,-148.51908396946564,-50.81679389312977,469.72477064220186,-39.08256880733945,4.4036697247706424,,
1760471082.8126893,0,1.7303466796875,0.12445068359375,0.124755859375,9.427480916030534,-158.29007633587787,-58.63358778625954,775.045871559633,-38.71559633027523,5.137614678899083,,
1760471082.8340404,0,1.73046875,0.12445068359375,0.124755859375,9.419847328244275,-142.65648854961833,-46.908396946564885,610.6422018348624,-39.08256880733945,4.4036697247706424,,
1760471082.8659282,0,1.73065185546875,0.12445068359375,0.124755859375,9.412213740458014,-170.01526717557252,-41.045801526717554,352.2935779816514,-38.71559633027523,5.045871559633028,,
1760471082.8768542,0,1.73077392578125,0.1243896484375,0.12481689453125,9.404580152671755,-144.61068702290078,-62.541984732824424,657.6146788990826,-38.899082568807344,4.4036697247706424,,
1760471082.8875747,0,1.73095703125,0.12457275390625,0.1248779296875,9.404580152671755,-181.74045801526717,-74.26717557251908,704.5871559633028,-38.62385321100918,4.495412844036697,,
1760471082.9090328,0,1.7310791015625,0.1243896484375,0.12469482421875,9.435114503816793,-154.38167938931298,-48.86259541984733,587.1559633027523,-39.357798165137616,4.220183486238533,,
1760471082.9304109,0,1.73126220703125,0.12451171875,0.12469482421875,9.412213740458014,-152.42748091603053,-35.18320610687023,563.6697247706422,-39.26605504587156,4.862385321100918,,
1760471082.941208,0,1.73138427734375,0.1243896484375,0.12481689453125,9.427480916030534,-158.29007633587787,-43.0,634.1284403669725,-39.357798165137616,5.137614678899083,,
1760471082.9624832,0,1.7315673828125,0.1243896484375,0.12469482421875,9.396946564885496,-150.4732824427481,-52.770992366412216,375.7798165137615,-39.26605504587156,5.596330275229358,,
1760471082.9943888,0,1.731689453125,0.12445068359375,0.124755859375,9.412213740458014,-146.5648854961832,-50.81679389312977,822.0183486238533,-39.08256880733945,4.770642201834862,,
1760471083.0051172,0,1.73187255859375,0.12445068359375,0.124755859375,9.412213740458014,-136.793893129771,-56.6793893129771,446.2385321100918,-38.99082568807339,4.770642201834862,,
1760471083.0264916,0,1.73199462890625,0.1243896484375,0.1246337890625,9.427480916030534,-148.51908396946564,-66.45038167938931,399.26605504587155,-39.54128440366972,4.678899082568807,,
1760471083.0372846,0,1.732177734375,0.12445068359375,0.124755859375,9.419847328244275,-140.70229007633588,-44.954198473282446,845.5045871559633,-39.26605504587156,4.862385321100918,,
1760471083.0587437,0,1.7322998046875,0.12432861328125,0.12469482421875,9.404580152671755,-142.65648854961833,-62.541984732824424,775.045871559633,-39.08256880733945,5.137614678899083,,
1760471083.0905323,0,1.73248291015625,0.1243896484375,0.1246337890625,9.396946564885496,-142.65648854961833,-64.49618320610686,610.6422018348624,-39.357798165137616,4.587155963302752,,
1760471083.1013,0,1.73260498046875,0.12451171875,0.12469482421875,9.427480916030534,-166.10687022900763,-23.458015267175572,1080.3669724770643,-38.34862385321101,4.128440366972478,,
1760471083.122853,0,1.7327880859375,0.12432861328125,0.12469482421875,9.419847328244275,-156.33587786259542,-39.091603053435115,305.3211009174312,-38.440366972477065,4.587155963302752,,
1760471083.1547556,0,1.73291015625,0.12445068359375,0.12469482421875,9.419847328244275,-166.10687022900763,-58.63358778625954,868.9908256880734,-39.26605504587156,4.128440366972478,,
1760471083.1652827,0,1.73309326171875,0.12451171875,0.12469482421875,9.412213740458014,-156.33587786259542,-48.86259541984733,657.6146788990826,-39.26605504587156,5.045871559633028,,
1760471083.1865673,0,1.73321533203125,0.12445068359375,0.12469482421875,9.412213740458014,-168.06106870229007,-31.27480916030534,587.1559633027523,-39.08256880733945,4.587155963302752,,
1760471083.2186425,0,1.7333984375,0.1243896484375,0.12481689453125,9.419847328244275,-152.42748091603053,-37.13740458015267,704.5871559633028,-39.26605504587156,4.862385321100918,,
1760471083.2295322,0,1.7335205078125,0.12451171875,0.124755859375,9.427480916030534,-152.42748091603053,-29.3206106870229,516.6972477064221,-39.357798165137616,4.4036697247706424,,
1760471083.2402465,0,1.73370361328125,0.12445068359375,0.12481689453125,9.427480916030534,-148.51908396946564,-35.18320610687023,610.6422018348624,-38.62385321100918,4.128440366972478,,
1760471083.2510538,0,1.73382568359375,0.1243896484375,0.12469482421875,9.404580152671755,-166.10687022900763,-25.412213740458014,563.6697247706422,-39.08256880733945,4.3119266055045875,,
1760471083.2830303,0,1.7340087890625,0.12445068359375,0.124755859375,9.435114503816793,-152.42748091603053,-66.45038167938931,610.6422018348624,-38.71559633027523,4.3119266055045875,,
1760471083.2938108,0,1.734130859375,0.12445068359375,0.124755859375,9.427480916030534,-154.38167938931298,-66.45038167938931,681.1009174311927,-38.899082568807344,4.862385321100918,,
1760471083.3152125,0,1.73431396484375,0.12445068359375,0.12469482421875,9.427480916030534,-140.70229007633588,-41.045801526717554,657.6146788990826,-39.357798165137616,4.954128440366973,,
1760471083.3472016,0,1.73443603515625,0.12445068359375,0.1246337890625,9.419847328244275,-160.24427480916032,-9.778625954198473,728.0733944954129,-38.62385321100918,4.495412844036697,,
1760471083.3579342,0,1.734619140625,0.12445068359375,0.124755859375,9.427480916030534,-191.5114503816794,-31.27480916030534,892.4770642201836,-39.44954128440367,3.853211009174312,,
1760471083.379415,0,1.7347412109375,0.12451171875,0.124755859375,9.427480916030534,-156.33587786259542,-46.908396946564885,728.0733944954129,-40.0,4.3119266055045875,,
1760471083.3901668,0,1.73492431640625,0.12432861328125,0.124755859375,9.412213740458014,-171.96946564885496,-52.770992366412216,634.1284403669725,-39.174311926605505,4.678899082568807,,
1760471083.411466,0,1.73504638671875,0.12451171875,0.1248779296875,9.442748091603054,-156.33587786259542,-25.412213740458014,540.1834862385322,-39.26605504587156,5.137614678899083,,
1760471083.4434383,0,1.7352294921875,0.12432861328125,0.124755859375,9.427480916030534,-146.5648854961832,-50.81679389312977,399.26605504587155,-38.99082568807339,4.770642201834862,,
1760471083.454145,0,1.7353515625,0.1243896484375,0.1246337890625,9.419847328244275,-127.02290076335878,-64.49618320610686,469.72477064220186,-38.899082568807344,4.4036697247706424,,
1760471083.475544,0,1.73553466796875,0.12445068359375,0.12481689453125,9.427480916030534,-156.33587786259542,-43.0,587.1559633027523,-39.72477064220183,5.229357798165138,,
1760471083.4863424,0,1.73565673828125,0.12451171875,0.124755859375,9.419847328244275,-160.24427480916032,-84.0381679389313,681.1009174311927,-39.357798165137616,4.770642201834862,,
1760471083.5078068,0,1.73583984375,0.12445068359375,0.12469482421875,9.427480916030534,-148.51908396946564,-35.18320610687023,563.6697247706422,-38.99082568807339,4.954128440366973,,
1760471083.5397708,0,1.7359619140625,0.12445068359375,0.124755859375,9.435114503816793,-150.4732824427481,-41.045801526717554,540.1834862385322,-39.26605504587156,4.954128440366973,,
1760471083.5505085,0,1.73614501953125,0.12451171875,0.124755859375,9.427480916030534,-134.83969465648855,-44.954198473282446,704.5871559633028,-39.174311926605505,4.587155963302752,,
1760471083.5719576,0,1.73626708984375,0.12445068359375,0.124755859375,9.427480916030534,-152.42748091603053,-33.229007633587784,704.5871559633028,-38.53211009174312,4.128440366972478,,
1760471083.5932229,0,1.7364501953125,0.12445068359375,0.12469482421875,9.435114503816793,-201.2824427480916,-43.0,751.559633027523,-38.80733944954128,4.3119266055045875,,
1760471083.6039622,0,1.736572265625,0.1243896484375,0.1246337890625,9.419847328244275,-168.06106870229007,-99.67175572519083,704.5871559633028,-38.71559633027523,4.587155963302752,,
1760471083.6253724,0,1.73675537109375,0.1243896484375,0.124755859375,9.427480916030534,-148.51908396946564,-46.908396946564885,540.1834862385322,-39.174311926605505,5.321100917431193,,
1760471083.6362681,0,1.73687744140625,0.1243896484375,0.12481689453125,9.419847328244275,-130.93129770992365,-37.13740458015267,751.559633027523,-38.80733944954128,5.137614678899083,,
1760471083.66823,0,1.737060546875,0.124267578125,0.12481689453125,9.419847328244275,-170.01526717557252,-60.587786259541986,375.7798165137615,-39.357798165137616,4.587155963302752,,
1760471083.689582,0,1.7371826171875,0.12451171875,0.12481689453125,9.442748091603054,-138.74809160305344,-23.458015267175572,587.1559633027523,-39.08256880733945,5.229357798165138,,
1760471083.7215176,0,1.73736572265625,0.12445068359375,0.12469482421875,9.419847328244275,-138.74809160305344,-64.49618320610686,657.6146788990826,-38.62385321100918,4.036697247706423,,
1760471083.7324,0,1.73748779296875,0.12432861328125,0.124755859375,9.419847328244275,-136.793893129771,-48.86259541984733,634.1284403669725,-39.26605504587156,4.587155963302752,,
1760471083.7538028,0,1.7376708984375,0.12451171875,0.12469482421875,9.404580152671755,-152.42748091603053,-41.045801526717554,540.1834862385322,-38.71559633027523,4.770642201834862,,
1760471083.7857456,0,1.73779296875,0.12445068359375,0.12481689453125,9.419847328244275,-170.01526717557252,-52.770992366412216,469.72477064220186,-39.174311926605505,4.862385321100918,,
1760471083.7964997,0,1.73797607421875,0.12432861328125,0.12481689453125,9.419847328244275,-142.65648854961833,-56.6793893129771,775.045871559633,-39.174311926605505,4.678899082568807,,
1760471083.8072903,0,1.73809814453125,0.1243896484375,0.124755859375,9.404580152671755,-164.15267175572518,-33.229007633587784,328.8073394495413,-39.174311926605505,4.678899082568807,,
1760471083.8180735,0,1.73828125,0.12457275390625,0.124755859375,9.427480916030534,-152.42748091603053,-48.86259541984733,587.1559633027523,-39.26605504587156,4.220183486238533,,
1760471083.8500185,0,1.7384033203125,0.1243896484375,0.1246337890625,9.404580152671755,-171.96946564885496,-37.13740458015267,469.72477064220186,-38.80733944954128,4.770642201834862,,
1760471083.8607996,0,1.73858642578125,0.12451171875,0.124755859375,9.419847328244275,-162.19847328244273,-41.045801526717554,681.1009174311927,-39.174311926605505,5.137614678899083,,
1760471083.8821847,0,1.73870849609375,0.1243896484375,0.124755859375,9.435114503816793,-146.5648854961832,-21.50381679389313,540.1834862385322,-39.908256880733944,5.229357798165138,,
1760471083.9140568,0,1.7388916015625,0.12445068359375,0.12481689453125,9.419847328244275,-168.06106870229007,-33.229007633587784,751.559633027523,-38.899082568807344,5.229357798165138,,
1760471083.9247653,0,1.739013671875,0.124267578125,0.12469482421875,9.427480916030534,-150.4732824427481,-78.17557251908397,563.6697247706422,-38.99082568807339,4.770642201834862,,
1760471083.9461956,0,1.73919677734375,0.12445068359375,0.12469482421875,9.419847328244275,-160.24427480916032,-54.725190839694655,868.9908256880734,-38.80733944954128,4.128440366972478,,
1760471083.9569988,0,1.73931884765625,0.1243896484375,0.12469482421875,9.435114503816793,-134.83969465648855,-60.587786259541986,305.3211009174312,-39.08256880733945,4.678899082568807,,
1760471083.978189,0,1.739501953125,0.1243896484375,0.124755859375,9.404580152671755,-160.24427480916032,-74.26717557251908,493.2110091743119,-38.99082568807339,4.770642201834862,,
1760471084.0100327,0,1.7396240234375,0.1243896484375,0.12481689453125,9.427480916030534,-132.8854961832061,-23.458015267175572,1056.8807339449543,-39.357798165137616,5.229357798165138,,
1760471084.0207915,0,1.73980712890625,0.12445068359375,0.124755859375,9.427480916030534,-185.64885496183206,-48.86259541984733,610.6422018348624,-39.174311926605505,4.770642201834862,,
1760471084.0420728,0,1.73992919921875,0.1243896484375,0.12481689453125,9.419847328244275,-130.93129770992365,-52.770992366412216,634.1284403669725,-39.357798165137616,5.5045871559633035,,
1760471084.0740056,0,1.7401123046875,0.12445068359375,0.12481689453125,9.427480916030534,-156.33587786259542,-37.13740458015267,915.9633027522937,-38.62385321100918,4.220183486238533,,
1760471084.0847664,0,1.740234375,0.1243896484375,0.12469482421875,9.427480916030534,-175.87786259541986,-31.27480916030534,587.1559633027523,-38.899082568807344,4.587155963302752,,
1760471084.0955446,0,1.74041748046875,0.1243896484375,0.12469482421875,9.442748091603054,-168.06106870229007,-23.458015267175572,563.6697247706422,-38.899082568807344,4.862385321100918,,
1760471084.1064405,0,1.74053955078125,0.12445068359375,0.1246337890625,9.419847328244275,-130.93129770992365,-33.229007633587784,446.2385321100918,-38.899082568807344,5.229357798165138,,
1760471084.1277845,0,1.74072265625,0.12457275390625,0.124755859375,9.427480916030534,-154.38167938931298,-31.27480916030534,657.6146788990826,-39.26605504587156,4.4036697247706424,,
1760471084.1596339,0,1.7408447265625,0.1243896484375,0.12469482421875,9.427480916030534,-130.93129770992365,-56.6793893129771,540.1834862385322,-38.99082568807339,4.4036697247706424,,
1760471084.1703818,0,1.74102783203125,0.1243896484375,0.12481689453125,9.427480916030534,-199.32824427480915,-68.40458015267176,1080.3669724770643,-38.899082568807344,3.486238532110092,,
1760471084.1917512,0,1.74114990234375,0.12445068359375,0.124755859375,9.427480916030534,-158.29007633587787,-44.954198473282446,845.5045871559633,-39.908256880733944,4.770642201834862,,
1760471084.223624,0,1.7413330078125,0.12451171875,0.1246337890625,9.427480916030534,-150.4732824427481,-64.49618320610686,352.2935779816514,-39.26605504587156,4.678899082568807,,
1760471084.2343054,0,1.741455078125,0.12445068359375,0.12469482421875,9.419847328244275,-173.9236641221374,-52.770992366412216,704.5871559633028,-38.99082568807339,4.954128440366973,,
1760471084.2556367,0,1.74163818359375,0.1243896484375,0.12469482421875,9.427480916030534,-187.6030534351145,-13.687022900763358,446.2385321100918,-38.440366972477065,4.862385321100918,,
1760471084.287506,0,1.74176025390625,0.12451171875,0.12457275390625,9.404580152671755,-142.65648854961833,-21.50381679389313,587.1559633027523,-38.899082568807344,4.495412844036697,,
1760471084.298254,0,1.741943359375,0.12445068359375,0.12481689453125,9.427480916030534,-134.83969465648855,-60.587786259541986,610.6422018348624,-38.99082568807339,3.853211009174312,,
1760471084.319543,0,1.7420654296875,0.1243896484375,0.1246337890625,9.412213740458014,-181.74045801526717,-33.229007633587784,446.2385321100918,-38.899082568807344,4.220183486238533,,
1760471084.3512423,0,1.74224853515625,0.1243896484375,0.124755859375,9.412213740458014,-166.10687022900763,-33.229007633587784,563.6697247706422,-38.440366972477065,4.862385321100918,,
1760471084.3619971,0,1.74237060546875,0.12445068359375,0.124755859375,9.435114503816793,-144.61068702290078,-64.49618320610686,399.26605504587155,-39.54128440366972,4.495412844036697,,
1760471084.383396,0,1.7425537109375,0.1243896484375,0.124755859375,9.427480916030534,-146.5648854961832,-21.50381679389313,634.1284403669725,-39.08256880733945,4.770642201834862,,
1760471084.4047205,0,1.74267578125,0.1243896484375,0.12481689453125,9.427480916030534,-164.15267175572518,-29.3206106870229,892.4770642201836,-38.71559633027523,4.4036697247706424,,
1760471084.4154317,0,1.74285888671875,0.12432861328125,0.124755859375,9.442748091603054,-168.06106870229007,-48.86259541984733,634.1284403669725,-39.26605504587156,4.3119266055045875,,
1760471084.4366293,0,1.74298095703125,0.12445068359375,0.124755859375,9.427480916030534,-154.38167938931298,-70.3587786259542,422.7522935779817,-38.899082568807344,4.770642201834862,,
1760471084.4474726,0,1.7431640625,0.12445068359375,0.12469482421875,9.419847328244275,-127.02290076335878,-41.045801526717554,775.045871559633,-39.174311926605505,4.3119266055045875,,
1760471084.4688632,0,1.7432861328125,0.12445068359375,0.12469482421875,9.404580152671755,-171.96946564885496,-19.549618320610687,704.5871559633028,-38.71559633027523,5.137614678899083,,
1760471084.4794943,0,1.74346923828125,0.12445068359375,0.12469482421875,9.427480916030534,-154.38167938931298,-31.27480916030534,657.6146788990826,-39.357798165137616,4.678899082568807,,
1760471084.5008643,0,1.74359130859375,0.12445068359375,0.12469482421875,9.404580152671755,-166.10687022900763,-58.63358778625954,798.5321100917431,-39.72477064220183,4.862385321100918,,
1760471084.53253,0,1.7437744140625,0.12451171875,0.124755859375,9.412213740458014,-138.74809160305344,-37.13740458015267,493.2110091743119,-39.357798165137616,4.3119266055045875,,
1760471084.5433838,0,1.743896484375,0.1243896484375,0.12481689453125,9.412213740458014,-168.06106870229007,-60.587786259541986,681.1009174311927,-38.899082568807344,4.770642201834862,,
1760471084.5650487,0,1.74407958984375,0.1243896484375,0.12469482421875,9.381679389312977,-99.66412213740458,-41.045801526717554,352.2935779816514,-39.08256880733945,4.770642201834862,,
1760471084.5970402,0,1.74420166015625,0.12445068359375,0.12481689453125,9.412213740458014,-148.51908396946564,-17.595419847328245,540.1834862385322,-39.44954128440367,5.321100917431193,,
1760471084.6076975,0,1.744384765625,0.1243896484375,0.12469482421875,9.419847328244275,-162.19847328244273,-56.6793893129771,563.6697247706422,-38.71559633027523,4.4036697247706424,,
1760471084.628681,0,1.7445068359375,0.1243896484375,0.124755859375,9.419847328244275,-138.74809160305344,-52.770992366412216,587.1559633027523,-39.26605504587156,4.3119266055045875,,
1760471084.6394498,0,1.74468994140625,0.12432861328125,0.124755859375,9.419847328244275,-160.24427480916032,-80.12977099236642,446.2385321100918,-38.71559633027523,4.678899082568807,,
1760471084.6607552,0,1.74481201171875,0.12445068359375,0.12481689453125,9.419847328244275,-160.24427480916032,-23.458015267175572,775.045871559633,-38.899082568807344,4.678899082568807,,
1760471084.692589,0,1.7449951171875,0.12432861328125,0.12481689453125,9.435114503816793,-115.29770992366412,-41.045801526717554,281.8348623853211,-38.62385321100918,4.954128440366973,,
1760471084.7033706,0,1.7451171875,0.12451171875,0.12457275390625,9.419847328244275,-150.4732824427481,-43.0,822.0183486238533,-39.174311926605505,4.954128440366973,,
1760471084.7246306,0,1.74530029296875,0.12445068359375,0.12469482421875,9.412213740458014,-158.29007633587787,-72.31297709923665,634.1284403669725,-39.357798165137616,4.495412844036697,,
1760471084.7354326,0,1.74542236328125,0.12445068359375,0.1246337890625,9.412213740458014,-156.33587786259542,-13.687022900763358,563.6697247706422,-38.71559633027523,5.321100917431193,,
1760471084.7568734,0,1.74560546875,0.1243896484375,0.12469482421875,9.442748091603054,-164.15267175572518,-39.091603053435115,868.9908256880734,-39.54128440366972,4.954128440366973,,
1760471084.7884061,0,1.7457275390625,0.12445068359375,0.12469482421875,9.427480916030534,-170.01526717557252,-50.81679389312977,563.6697247706422,-38.99082568807339,4.770642201834862,,
1760471084.7989407,0,1.74591064453125,0.1243896484375,0.12469482421875,9.435114503816793,-132.8854961832061,-39.091603053435115,728.0733944954129,-39.633027522935784,4.678899082568807,,
1760471084.8202076,0,1.74603271484375,0.12445068359375,0.12481689453125,9.427480916030534,-164.15267175572518,-41.045801526717554,657.6146788990826,-39.26605504587156,5.137614678899083,,
1760471084.852056,0,1.7462158203125,0.12451171875,0.124755859375,9.419847328244275,-148.51908396946564,-58.63358778625954,587.1559633027523,-38.899082568807344,4.770642201834862,,
1760471084.8628411,0,1.746337890625,0.12451171875,0.12469482421875,9.427480916030534,-146.5648854961832,-52.770992366412216,446.2385321100918,-39.357798165137616,4.678899082568807,,
1760471084.8842137,0,1.74652099609375,0.12451171875,0.12481689453125,9.412213740458014,-181.74045801526717,-54.725190839694655,587.1559633027523,-38.71559633027523,4.4036697247706424,,
1760471084.8949301,0,1.74664306640625,0.12445068359375,0.12469482421875,9.435114503816793,-164.15267175572518,-78.17557251908397,540.1834862385322,-39.08256880733945,4.4036697247706424,,
1760471084.9163406,0,1.746826171875,0.1243896484375,0.12481689453125,9.427480916030534,-173.9236641221374,-56.6793893129771,587.1559633027523,-38.34862385321101,4.862385321100918,,
1760471084.9376266,0,1.7469482421875,0.12445068359375,0.12469482421875,9.427480916030534,-127.02290076335878,-21.50381679389313,540.1834862385322,-39.357798165137616,4.678899082568807,,
1760471084.969496,0,1.74713134765625,0.12432861328125,0.12481689453125,9.435114503816793,-179.78625954198472,-41.045801526717554,563.6697247706422,-39.174311926605505,4.770642201834862,,
1760471084.9802525,0,1.74725341796875,0.12445068359375,0.124755859375,9.427480916030534,-152.42748091603053,-29.3206106870229,399.26605504587155,-39.26605504587156,5.045871559633028,,
1760471085.001577,0,1.7474365234375,0.12432861328125,0.124755859375,9.427480916030534,-175.87786259541986,-48.86259541984733,587.1559633027523,-38.899082568807344,4.4036697247706424,,
1760471085.0333183,0,1.74755859375,0.12432861328125,0.12469482421875,9.419847328244275,-138.74809160305344,-52.770992366412216,540.1834862385322,-38.80733944954128,4.862385321100918,,
1760471085.044348,0,1.74774169921875,0.12451171875,0.12469482421875,9.412213740458014,-148.51908396946564,-58.63358778625954,493.2110091743119,-38.899082568807344,5.321100917431193,,
1760471085.055055,0,1.74786376953125,0.12445068359375,0.124755859375,9.419847328244275,-130.93129770992365,-29.3206106870229,563.6697247706422,-38.71559633027523,4.954128440366973,,
1760471085.097275,0,1.748046875,0.12451171875,0.12481689453125,9.419847328244275,-115.29770992366412,-29.3206106870229,868.9908256880734,-38.99082568807339,4.587155963302752,,
1760471085.1079152,0,1.7481689453125,0.12432861328125,0.12469482421875,9.419847328244275,-121.16030534351145,-82.08396946564885,422.7522935779817,-39.174311926605505,4.954128440366973,,
1760471085.1187966,0,1.74835205078125,0.12445068359375,0.12469482421875,9.412213740458014,-117.25190839694656,-84.0381679389313,1080.3669724770643,-39.357798165137616,4.862385321100918,,
1760471085.1295805,0,1.74847412109375,0.1243896484375,0.124755859375,9.458015267175572,-160.24427480916032,-52.770992366412216,681.1009174311927,-38.80733944954128,4.770642201834862,,
1760471085.1613343,0,1.7486572265625,0.12457275390625,0.1248779296875,9.427480916030534,-187.6030534351145,-46.908396946564885,657.6146788990826,-39.08256880733945,4.3119266055045875,,
1760471085.1720967,0,1.748779296875,0.12451171875,0.1248779296875,9.427480916030534,-170.01526717557252,-35.18320610687023,587.1559633027523,-38.80733944954128,4.770642201834862,,
1760471085.1934147,0,1.74896240234375,0.12432861328125,0.124755859375,9.412213740458014,-146.5648854961832,-35.18320610687023,469.72477064220186,-39.26605504587156,4.862385321100918,,
1760471085.2254136,0,1.74908447265625,0.1243896484375,0.124755859375,9.427480916030534,-171.96946564885496,-27.366412213740457,845.5045871559633,-39.816513761467895,4.587155963302752,,
1760471085.2361238,0,1.749267578125,0.12432861328125,0.124755859375,9.412213740458014,-134.83969465648855,-21.50381679389313,610.6422018348624,-38.899082568807344,4.770642201834862,,
1760471085.2471278,0,1.7493896484375,0.12445068359375,0.124755859375,9.412213740458014,-146.5648854961832,-44.954198473282446,634.1284403669725,-39.26605504587156,4.587155963302752,,
1760471085.2580166,0,1.74957275390625,0.12445068359375,0.12469482421875,9.412213740458014,-144.61068702290078,-62.541984732824424,610.6422018348624,-38.1651376146789,3.853211009174312,,
1760471085.2899852,0,1.74969482421875,0.1243896484375,0.12481689453125,9.427480916030534,-130.93129770992365,-41.045801526717554,493.2110091743119,-39.54128440366972,4.495412844036697,,
1760471085.3219666,0,1.7498779296875,0.1243896484375,0.12481689453125,9.412213740458014,-134.83969465648855,-68.40458015267176,751.559633027523,-38.99082568807339,4.862385321100918,,
1760471085.3328052,0,1.75,0.12451171875,0.12481689453125,9.427480916030534,-154.38167938931298,-50.81679389312977,516.6972477064221,-39.08256880733945,5.321100917431193,,
1760471085.354236,0,1.75018310546875,0.1243896484375,0.1246337890625,9.427480916030534,-130.93129770992365,-9.778625954198473,704.5871559633028,-39.08256880733945,4.954128440366973,,
1760471085.3649795,0,1.75030517578125,0.12445068359375,0.1246337890625,9.427480916030534,-154.38167938931298,-68.40458015267176,563.6697247706422,-39.174311926605505,4.4036697247706424,,
1760471085.3759332,0,1.75048828125,0.1243896484375,0.12481689453125,9.412213740458014,-177.8320610687023,-66.45038167938931,845.5045871559633,-38.899082568807344,4.220183486238533,,
1760471085.4079459,0,1.7506103515625,0.12432861328125,0.12481689453125,9.427480916030534,-156.33587786259542,-50.81679389312977,751.559633027523,-38.62385321100918,4.678899082568807,,
1760471085.4187703,0,1.75079345703125,0.12432861328125,0.124755859375,9.427480916030534,-148.51908396946564,-5.870229007633588,657.6146788990826,-38.80733944954128,4.954128440366973,,
1760471085.440052,0,1.75091552734375,0.12445068359375,0.12481689453125,9.427480916030534,-134.83969465648855,-54.725190839694655,610.6422018348624,-39.174311926605505,5.137614678899083,,
1760471085.4717004,0,1.7510986328125,0.1243896484375,0.12469482421875,9.404580152671755,-166.10687022900763,-62.541984732824424,634.1284403669725,-39.633027522935784,4.678899082568807,,
1760471085.482411,0,1.751220703125,0.1243896484375,0.124755859375,9.419847328244275,-154.38167938931298,-43.0,704.5871559633028,-39.08256880733945,4.128440366972478,,
1760471085.5038397,0,1.75140380859375,0.1243896484375,0.12469482421875,9.396946564885496,-144.61068702290078,-52.770992366412216,775.045871559633,-38.34862385321101,3.577981651376147,,
1760471085.514709,0,1.75152587890625,0.1243896484375,0.12469482421875,9.427480916030534,-138.74809160305344,-44.954198473282446,422.7522935779817,-39.44954128440367,4.495412844036697,,
1760471085.5360692,0,1.751708984375,0.12445068359375,0.124755859375,9.419847328244275,-150.4732824427481,-13.687022900763358,728.0733944954129,-39.08256880733945,4.587155963302752,,
1760471085.5679882,0,1.7518310546875,0.12457275390625,0.124755859375,9.427480916030534,-144.61068702290078,-58.63358778625954,657.6146788990826,-39.26605504587156,5.229357798165138,,
1760471085.5998847,0,1.75201416015625,0.12445068359375,0.124755859375,9.419847328244275,-136.793893129771,-58.63358778625954,540.1834862385322,-39.44954128440367,4.678899082568807,,
1760471085.6105936,0,1.75213623046875,0.1243896484375,0.12481689453125,9.419847328244275,-113.34351145038168,-66.45038167938931,375.7798165137615,-38.99082568807339,4.678899082568807,,
1760471085.6319957,0,1.7523193359375,0.12432861328125,0.124755859375,9.404580152671755,-181.74045801526717,-48.86259541984733,939.4495412844037,-38.62385321100918,4.770642201834862,,
1760471085.6427672,0,1.75244140625,0.1243896484375,0.12469482421875,9.419847328244275,-132.8854961832061,-7.824427480916031,446.2385321100918,-39.08256880733945,4.587155963302752,,
1760471085.6641288,0,1.75262451171875,0.1243896484375,0.1246337890625,9.427480916030534,-148.51908396946564,-52.770992366412216,657.6146788990826,-39.26605504587156,4.587155963302752,,
1760471085.6748915,0,1.75274658203125,0.12451171875,0.1246337890625,9.427480916030534,-134.83969465648855,-25.412213740458014,775.045871559633,-39.08256880733945,5.229357798165138,,
1760471085.696316,0,1.7529296875,0.12445068359375,0.12469482421875,9.404580152671755,-148.51908396946564,-23.458015267175572,798.5321100917431,-39.08256880733945,4.862385321100918,,
1760471085.728129,0,1.7530517578125,0.12451171875,0.124755859375,9.404580152671755,-121.16030534351145,-50.81679389312977,375.7798165137615,-39.44954128440367,4.678899082568807,,
1760471085.738909,0,1.75323486328125,0.12445068359375,0.1246337890625,9.427480916030534,-191.5114503816794,-41.045801526717554,704.5871559633028,-38.80733944954128,4.128440366972478,,
1760471085.7602408,0,1.75335693359375,0.1243896484375,0.12469482421875,9.412213740458014,-156.33587786259542,-39.091603053435115,610.6422018348624,-39.26605504587156,4.862385321100918,,
1760471085.7922497,0,1.7535400390625,0.12445068359375,0.124755859375,9.419847328244275,-158.29007633587787,-66.45038167938931,634.1284403669725,-39.633027522935784,4.954128440366973,,
1760471085.803029,0,1.753662109375,0.12445068359375,0.12481689453125,9.419847328244275,-179.78625954198472,-48.86259541984733,868.9908256880734,-39.174311926605505,5.412844036697248,,
1760471085.8245246,0,1.75384521484375,0.12445068359375,0.124755859375,9.442748091603054,-144.61068702290078,-56.6793893129771,775.045871559633,-39.72477064220183,4.4036697247706424,,
1760471085.8353424,0,1.75396728515625,0.12445068359375,0.12469482421875,9.427480916030534,-171.96946564885496,-76.22137404580153,328.8073394495413,-39.44954128440367,4.495412844036697,,
1760471085.846204,0,1.754150390625,0.12451171875,0.12469482421875,9.435114503816793,-138.74809160305344,-46.908396946564885,1056.8807339449543,-39.08256880733945,4.587155963302752,,
1760471085.8780005,0,1.7542724609375,0.1243896484375,0.12469482421875,9.412213740458014,-134.83969465648855,-50.81679389312977,681.1009174311927,-39.44954128440367,4.495412844036697,,
1760471085.8887985,0,1.75445556640625,0.12451171875,0.12469482421875,9.442748091603054,-136.793893129771,-46.908396946564885,610.6422018348624,-38.71559633027523,4.862385321100918,,
1760471085.9102023,0,1.75457763671875,0.12432861328125,0.12481689453125,9.427480916030534,-156.33587786259542,-19.549618320610687,751.559633027523,-39.174311926605505,5.137614678899083,,
1760471085.9420936,0,1.7547607421875,0.1243896484375,0.1246337890625,9.427480916030534,-128.9770992366412,-23.458015267175572,751.559633027523,-38.99082568807339,4.3119266055045875,,
1760471085.952911,0,1.7548828125,0.12445068359375,0.12481689453125,9.435114503816793,-146.5648854961832,-9.778625954198473,751.559633027523,-39.44954128440367,4.495412844036697,,
1760471085.9742684,0,1.75506591796875,0.12445068359375,0.1246337890625,9.412213740458014,-181.74045801526717,-82.08396946564885,868.9908256880734,-39.816513761467895,4.220183486238533,,
1760471085.9850445,0,1.75518798828125,0.1243896484375,0.12481689453125,9.419847328244275,-134.83969465648855,-56.6793893129771,986.4220183486239,-39.357798165137616,5.137614678899083,,
1760471086.00646,0,1.75537109375,0.1243896484375,0.12469482421875,9.427480916030534,-144.61068702290078,-52.770992366412216,986.4220183486239,-39.08256880733945,4.128440366972478,,
1760471086.0383058,0,1.7554931640625,0.1243896484375,0.12469482421875,9.412213740458014,-183.6946564885496,-58.63358778625954,845.5045871559633,-39.26605504587156,5.688073394495413,,
1760471086.0490818,0,1.75567626953125,0.12445068359375,0.12481689453125,9.419847328244275,-117.25190839694656,-39.091603053435115,798.5321100917431,-39.26605504587156,4.770642201834862,,
1760471086.0704634,0,1.75579833984375,0.1243896484375,0.12457275390625,9.427480916030534,-130.93129770992365,-35.18320610687023,399.26605504587155,-39.72477064220183,4.220183486238533,,
1760471086.0812726,0,1.7559814453125,0.12445068359375,0.12469482421875,9.404580152671755,-150.4732824427481,-39.091603053435115,563.6697247706422,-38.99082568807339,4.036697247706423,,
1760471086.102623,0,1.756103515625,0.12445068359375,0.1246337890625,9.412213740458014,-170.01526717557252,-33.229007633587784,493.2110091743119,-39.174311926605505,4.954128440366973,,
1760471086.1344986,0,1.75628662109375,0.1243896484375,0.12469482421875,9.427480916030534,-134.83969465648855,-37.13740458015267,704.5871559633028,-38.71559633027523,4.678899082568807,,
1760471086.166339,0,1.75640869140625,0.12457275390625,0.12481689453125,9.419847328244275,-130.93129770992365,-23.458015267175572,610.6422018348624,-39.44954128440367,4.587155963302752,,
1760471086.176798,0,1.756591796875,0.12451171875,0.12469482421875,9.404580152671755,-132.8854961832061,-29.3206106870229,328.8073394495413,-38.80733944954128,4.678899082568807,,
1760471086.1980925,0,1.7567138671875,0.12445068359375,0.12481689453125,9.427480916030534,-119.20610687022901,-41.045801526717554,493.2110091743119,-39.633027522935784,4.3119266055045875,,
1760471086.230006,0,1.75689697265625,0.1243896484375,0.124755859375,9.419847328244275,-166.10687022900763,-43.0,516.6972477064221,-39.26605504587156,4.4036697247706424,,
1760471086.2407908,0,1.75701904296875,0.12445068359375,0.124755859375,9.419847328244275,-140.70229007633588,-43.0,493.2110091743119,-39.08256880733945,5.412844036697248,,
1760471086.2618268,0,1.7572021484375,0.12445068359375,0.12481689453125,9.419847328244275,-134.83969465648855,-62.541984732824424,610.6422018348624,-38.80733944954128,4.4036697247706424,,
1760471086.272267,0,1.75732421875,0.12445068359375,0.124755859375,9.435114503816793,-168.06106870229007,-87.94656488549619,798.5321100917431,-38.440366972477065,5.229357798165138,,
1760471086.292988,0,1.75750732421875,0.12445068359375,0.124755859375,9.419847328244275,-170.01526717557252,-43.0,469.72477064220186,-38.899082568807344,4.3119266055045875,,
1760471086.3033664,0,1.75762939453125,0.12445068359375,0.1246337890625,9.412213740458014,-158.29007633587787,-19.549618320610687,728.0733944954129,-38.71559633027523,4.4036697247706424,,
1760471086.3240337,0,1.7578125,0.12445068359375,0.12481689453125,9.404580152671755,-179.78625954198472,-43.0,657.6146788990826,-38.80733944954128,3.669724770642202,,
1760471086.355018,0,1.7579345703125,0.12445068359375,0.124755859375,9.419847328244275,-150.4732824427481,-48.86259541984733,563.6697247706422,-38.899082568807344,4.3119266055045875,,
1760471086.3653827,0,1.75811767578125,0.1243896484375,0.124755859375,9.419847328244275,-103.57251908396947,-7.824427480916031,704.5871559633028,-38.71559633027523,4.587155963302752,,
1760471086.3860836,0,1.75823974609375,0.12445068359375,0.12457275390625,9.419847328244275,-150.4732824427481,-44.954198473282446,610.6422018348624,-39.08256880733945,5.137614678899083,,
1760471086.3964689,0,1.7584228515625,0.12451171875,0.12481689453125,9.427480916030534,-160.24427480916032,-11.732824427480915,422.7522935779817,-38.71559633027523,4.036697247706423,,
1760471086.4172416,0,1.758544921875,0.12445068359375,0.1246337890625,9.419847328244275,-132.8854961832061,-37.13740458015267,540.1834862385322,-39.72477064220183,4.495412844036697,,
1760471086.448243,0,1.75872802734375,0.1243896484375,0.12481689453125,9.412213740458014,-138.74809160305344,-50.81679389312977,822.0183486238533,-39.357798165137616,4.128440366972478,,
1760471086.4586256,0,1.75885009765625,0.1243896484375,0.124755859375,9.435114503816793,-154.38167938931298,-82.08396946564885,822.0183486238533,-39.44954128440367,5.321100917431193,,
1760471086.4793792,0,1.759033203125,0.12445068359375,0.12469482421875,9.419847328244275,-150.4732824427481,-70.3587786259542,469.72477064220186,-38.99082568807339,4.4036697247706424,,
1760471086.4897335,0,1.7591552734375,0.12445068359375,0.124755859375,9.419847328244275,-164.15267175572518,-21.50381679389313,469.72477064220186,-39.174311926605505,4.862385321100918,,
1760471086.5103254,0,1.75933837890625,0.1243896484375,0.124755859375,9.427480916030534,-158.29007633587787,-64.49618320610686,540.1834862385322,-38.99082568807339,4.770642201834862,,
1760471086.5412602,0,1.75946044921875,0.12445068359375,0.12481689453125,9.419847328244275,-170.01526717557252,-66.45038167938931,399.26605504587155,-39.174311926605505,4.3119266055045875,,
1760471086.551628,0,1.7596435546875,0.12445068359375,0.124755859375,9.419847328244275,-154.38167938931298,-46.908396946564885,422.7522935779817,-39.44954128440367,4.495412844036697,,
1760471086.5723255,0,1.759765625,0.12445068359375,0.12481689453125,9.412213740458014,-132.8854961832061,-29.3206106870229,516.6972477064221,-39.357798165137616,4.587155963302752,,
1760471086.6038544,0,1.75994873046875,0.12432861328125,0.12481689453125,9.427480916030534,-142.65648854961833,-50.81679389312977,610.6422018348624,-39.08256880733945,4.4036697247706424,,
1760471086.6142712,0,1.76007080078125,0.1243896484375,0.124755859375,9.412213740458014,-117.25190839694656,-37.13740458015267,962.9357798165138,-38.80733944954128,4.862385321100918,,
1760471086.635874,0,1.76025390625,0.12445068359375,0.12469482421875,9.419847328244275,-142.65648854961833,5.862595419847328,469.72477064220186,-39.72477064220183,4.954128440366973,,
1760471086.646324,0,1.7603759765625,0.1243896484375,0.12469482421875,9.419847328244275,-152.42748091603053,-64.49618320610686,728.0733944954129,-38.99082568807339,4.220183486238533,,
1760471086.6698823,0,1.76055908203125,0.1243896484375,0.12469482421875,9.412213740458014,-154.38167938931298,-41.045801526717554,681.1009174311927,-38.899082568807344,3.9449541284403673,,
1760471086.7009485,0,1.76068115234375,0.12445068359375,0.124755859375,9.404580152671755,-152.42748091603053,-58.63358778625954,704.5871559633028,-39.357798165137616,4.770642201834862,,
1760471086.7113366,0,1.7608642578125,0.12451171875,0.12481689453125,9.396946564885496,-168.06106870229007,-52.770992366412216,845.5045871559633,-39.174311926605505,4.770642201834862,,
1760471086.7323987,0,1.760986328125,0.12445068359375,0.12481689453125,9.427480916030534,-187.6030534351145,-25.412213740458014,328.8073394495413,-39.54128440366972,4.770642201834862,,
1760471086.7641537,0,1.76116943359375,0.12432861328125,0.124755859375,9.419847328244275,-142.65648854961833,-66.45038167938931,892.4770642201836,-39.174311926605505,4.862385321100918,,
1760471086.7746224,0,1.76129150390625,0.12451171875,0.1246337890625,9.419847328244275,-152.42748091603053,-27.366412213740457,516.6972477064221,-39.08256880733945,4.3119266055045875,,
1760471086.7969103,0,1.761474609375,0.12451171875,0.12481689453125,9.419847328244275,-148.51908396946564,-72.31297709923665,375.7798165137615,-39.54128440366972,4.678899082568807,,
1760471086.8073335,0,1.7615966796875,0.1243896484375,0.1246337890625,9.427480916030534,-173.9236641221374,-54.725190839694655,563.6697247706422,-39.72477064220183,4.678899082568807,,
1760471086.8293421,0,1.76177978515625,0.12451171875,0.124755859375,9.427480916030534,-148.51908396946564,-46.908396946564885,610.6422018348624,-39.174311926605505,5.229357798165138,,
1760471086.8420928,0,1.76190185546875,0.12445068359375,0.12469482421875,9.419847328244275,-170.01526717557252,-39.091603053435115,657.6146788990826,-39.26605504587156,4.954128440366973,,
1760471086.862989,0,1.7620849609375,0.12445068359375,0.1246337890625,9.427480916030534,-173.9236641221374,-33.229007633587784,516.6972477064221,-39.357798165137616,4.4036697247706424,,
1760471086.8969512,0,1.76220703125,0.1243896484375,0.12481689453125,9.412213740458014,-170.01526717557252,-56.6793893129771,681.1009174311927,-38.71559633027523,4.587155963302752,,
1760471086.9092417,0,1.76239013671875,0.12445068359375,0.12469482421875,9.404580152671755,-170.01526717557252,-52.770992366412216,375.7798165137615,-39.174311926605505,4.495412844036697,,
1760471086.9301255,0,1.76251220703125,0.1243896484375,0.124755859375,9.412213740458014,-162.19847328244273,-39.091603053435115,704.5871559633028,-39.08256880733945,4.495412844036697,,
1760471086.9627342,0,1.7626953125,0.12451171875,0.12469482421875,9.412213740458014,-146.5648854961832,-43.0,751.559633027523,-39.174311926605505,4.862385321100918,,
1760471086.9742572,0,1.7628173828125,0.12445068359375,0.12469482421875,9.412213740458014,-154.38167938931298,-33.229007633587784,681.1009174311927,-39.26605504587156,4.862385321100918,,
1760471086.995054,0,1.76300048828125,0.12432861328125,0.12469482421875,9.419847328244275,-148.51908396946564,-41.045801526717554,681.1009174311927,-38.899082568807344,4.587155963302752,,
1760471087.0054717,0,1.76312255859375,0.1243896484375,0.124755859375,9.404580152671755,-140.70229007633588,-23.458015267175572,657.6146788990826,-39.44954128440367,4.220183486238533,,
1760471087.0260537,0,1.7633056640625,0.12445068359375,0.12481689453125,9.419847328244275,-175.87786259541986,-82.08396946564885,493.2110091743119,-40.27522935779817,4.678899082568807,,
1760471087.036412,0,1.763427734375,0.1243896484375,0.12469482421875,9.419847328244275,-152.42748091603053,-25.412213740458014,775.045871559633,-38.99082568807339,4.3119266055045875,,
1760471087.0675156,0,1.76361083984375,0.1243896484375,0.12469482421875,9.435114503816793,-142.65648854961833,-78.17557251908397,798.5321100917431,-40.091743119266056,5.045871559633028,,
1760471087.08832,0,1.76373291015625,0.1243896484375,0.124755859375,9.419847328244275,-156.33587786259542,-17.595419847328245,563.6697247706422,-39.26605504587156,4.770642201834862,,
1760471087.1194234,0,1.763916015625,0.1243896484375,0.124755859375,9.427480916030534,-142.65648854961833,-33.229007633587784,587.1559633027523,-38.25688073394495,4.4036697247706424,,
1760471087.1301653,0,1.7640380859375,0.1243896484375,0.124755859375,9.427480916030534,-171.96946564885496,-44.954198473282446,375.7798165137615,-38.80733944954128,3.761467889908257,,
1760471087.151423,0,1.76422119140625,0.1243896484375,0.12469482421875,9.427480916030534,-179.78625954198472,-58.63358778625954,399.26605504587155,-39.54128440366972,4.4036697247706424,,
1760471087.162366,0,1.76434326171875,0.12451171875,0.12469482421875,9.427480916030534,-134.83969465648855,-44.954198473282446,540.1834862385322,-38.71559633027523,4.770642201834862,,
1760471087.183606,0,1.7645263671875,0.12451171875,0.124755859375,9.412213740458014,-144.61068702290078,-62.541984732824424,634.1284403669725,-40.0,4.495412844036697,,
1760471087.194353,0,1.7646484375,0.1243896484375,0.1246337890625,9.427480916030534,-168.06106870229007,-43.0,657.6146788990826,-38.440366972477065,4.770642201834862,,
1760471087.215708,0,1.76483154296875,0.12432861328125,0.124755859375,9.427480916030534,-181.74045801526717,-31.27480916030534,399.26605504587155,-39.26605504587156,5.137614678899083,,
1760471087.24748,0,1.76495361328125,0.12451171875,0.1246337890625,9.404580152671755,-150.4732824427481,-41.045801526717554,822.0183486238533,-38.71559633027523,4.4036697247706424,,
1760471087.2582707,0,1.76513671875,0.1243896484375,0.1246337890625,9.404580152671755,-146.5648854961832,-44.954198473282446,610.6422018348624,-39.44954128440367,4.587155963302752,,
1760471087.279587,0,1.7652587890625,0.12445068359375,0.12469482421875,9.427480916030534,-144.61068702290078,-74.26717557251908,704.5871559633028,-39.357798165137616,4.954128440366973,,
1760471087.311474,0,1.76544189453125,0.1243896484375,0.1248779296875,9.435114503816793,-154.38167938931298,-66.45038167938931,704.5871559633028,-40.0,4.770642201834862,,
1760471087.3222544,0,1.76556396484375,0.1243896484375,0.12481689453125,9.412213740458014,-150.4732824427481,-19.549618320610687,681.1009174311927,-38.80733944954128,4.862385321100918,,
1760471087.3435268,0,1.7657470703125,0.1243896484375,0.12481689453125,9.412213740458014,-146.5648854961832,-48.86259541984733,563.6697247706422,-39.26605504587156,4.862385321100918,,
1760471087.3542702,0,1.765869140625,0.12445068359375,0.1248779296875,9.427480916030534,-132.8854961832061,-72.31297709923665,446.2385321100918,-38.899082568807344,4.036697247706423,,
1760471087.3756247,0,1.76605224609375,0.12432861328125,0.1246337890625,9.404580152671755,-164.15267175572518,-66.45038167938931,281.8348623853211,-38.62385321100918,4.4036697247706424,,
1760471087.4075372,0,1.76617431640625,0.12445068359375,0.1246337890625,9.419847328244275,-150.4732824427481,-52.770992366412216,516.6972477064221,-39.54128440366972,4.4036697247706424,,
1760471087.4183335,0,1.766357421875,0.12445068359375,0.124755859375,9.419847328244275,-146.5648854961832,-89.90076335877863,469.72477064220186,-39.174311926605505,4.770642201834862,,
1760471087.439748,0,1.7664794921875,0.12445068359375,0.1246337890625,9.412213740458014,-150.4732824427481,-21.50381679389313,352.2935779816514,-38.899082568807344,4.678899082568807,,
1760471087.471367,0,1.76666259765625,0.12445068359375,0.124755859375,9.412213740458014,-150.4732824427481,-43.0,751.559633027523,-38.71559633027523,4.587155963302752,,
1760471087.4821587,0,1.76678466796875,0.12432861328125,0.124755859375,9.427480916030534,-168.06106870229007,-54.725190839694655,962.9357798165138,-38.440366972477065,4.495412844036697,,
1760471087.5035038,0,1.7669677734375,0.12445068359375,0.12469482421875,9.404580152671755,-173.9236641221374,-27.366412213740457,375.7798165137615,-38.99082568807339,4.220183486238533,,
1760471087.535423,0,1.76708984375,0.12445068359375,0.12469482421875,9.412213740458014,-144.61068702290078,-60.587786259541986,493.2110091743119,-39.174311926605505,4.770642201834862,,
1760471087.546284,0,1.76727294921875,0.12445068359375,0.124755859375,9.427480916030534,-140.70229007633588,-43.0,493.2110091743119,-39.357798165137616,5.045871559633028,,
1760471087.5568295,0,1.76739501953125,0.12445068359375,0.12481689453125,9.419847328244275,-127.02290076335878,-27.366412213740457,634.1284403669725,-39.174311926605505,4.3119266055045875,,
1760471087.5778158,0,1.767578125,0.1243896484375,0.12469482421875,9.419847328244275,-113.34351145038168,-46.908396946564885,610.6422018348624,-39.08256880733945,4.587155963302752,,
1760471087.5988464,0,1.7677001953125,0.12445068359375,0.124755859375,9.442748091603054,-146.5648854961832,-74.26717557251908,939.4495412844037,-39.26605504587156,4.128440366972478,,
1760471087.6095886,0,1.76788330078125,0.12445068359375,0.124755859375,9.427480916030534,-138.74809160305344,-56.6793893129771,868.9908256880734,-38.899082568807344,4.495412844036697,,
1760471087.631015,0,1.76800537109375,0.12445068359375,0.12457275390625,9.412213740458014,-173.9236641221374,-60.587786259541986,375.7798165137615,-39.816513761467895,4.220183486238533,,
1760471087.6629755,0,1.7681884765625,0.12445068359375,0.12469482421875,9.419847328244275,-164.15267175572518,-60.587786259541986,352.2935779816514,-39.08256880733945,4.862385321100918,,
1760471087.673727,0,1.768310546875,0.12457275390625,0.12481689453125,9.404580152671755,-162.19847328244273,-78.17557251908397,540.1834862385322,-38.99082568807339,4.770642201834862,,
1760471087.6950562,0,1.76849365234375,0.124267578125,0.12469482421875,9.427480916030534,-179.78625954198472,-25.412213740458014,93.94495412844037,-40.091743119266056,5.137614678899083,,
1760471087.705846,0,1.76861572265625,0.1243896484375,0.124755859375,9.419847328244275,-150.4732824427481,-68.40458015267176,751.559633027523,-39.174311926605505,5.045871559633028,,
1760471087.7271376,0,1.768798828125,0.12445068359375,0.124755859375,9.404580152671755,-171.96946564885496,-39.091603053435115,751.559633027523,-38.80733944954128,4.954128440366973,,
1760471087.7590418,0,1.7689208984375,0.12457275390625,0.12481689453125,9.442748091603054,-148.51908396946564,-17.595419847328245,610.6422018348624,-39.357798165137616,4.128440366972478,,
1760471087.7698069,0,1.76910400390625,0.12432861328125,0.12469482421875,9.427480916030534,-170.01526717557252,-31.27480916030534,493.2110091743119,-38.899082568807344,4.220183486238533,,
1760471087.7910922,0,1.76922607421875,0.1243896484375,0.1246337890625,9.419847328244275,-152.42748091603053,-50.81679389312977,775.045871559633,-39.633027522935784,4.862385321100918,,
1760471087.8018816,0,1.7694091796875,0.1243896484375,0.124755859375,9.412213740458014,-140.70229007633588,-29.3206106870229,540.1834862385322,-38.80733944954128,4.770642201834862,,
1760471087.8232107,0,1.76953125,0.1243896484375,0.12469482421875,9.419847328244275,-150.4732824427481,-74.26717557251908,610.6422018348624,-39.174311926605505,5.229357798165138,,
1760471087.855056,0,1.76971435546875,0.1243896484375,0.12469482421875,9.412213740458014,-136.793893129771,-41.045801526717554,516.6972477064221,-38.62385321100918,4.678899082568807,,
1760471087.8658216,0,1.76983642578125,0.1243896484375,0.1246337890625,9.412213740458014,-134.83969465648855,-58.63358778625954,540.1834862385322,-39.174311926605505,4.678899082568807,,
1760471087.8872254,0,1.77001953125,0.12451171875,0.124755859375,9.419847328244275,-152.42748091603053,-29.3206106870229,751.559633027523,-39.174311926605505,3.3944954128440368,,
1760471087.8980398,0,1.7701416015625,0.12451171875,0.124755859375,9.419847328244275,-175.87786259541986,-50.81679389312977,728.0733944954129,-38.99082568807339,4.4036697247706424,,
1760471087.9193997,0,1.77032470703125,0.1243896484375,0.12481689453125,9.427480916030534,-179.78625954198472,-48.86259541984733,493.2110091743119,-39.357798165137616,4.770642201834862,,
1760471087.9512444,0,1.77044677734375,0.12451171875,0.12469482421875,9.435114503816793,-136.793893129771,-27.366412213740457,892.4770642201836,-38.99082568807339,4.678899082568807,,
1760471087.9618819,0,1.7706298828125,0.1243896484375,0.124755859375,9.412213740458014,-150.4732824427481,-68.40458015267176,751.559633027523,-39.174311926605505,3.853211009174312,,
1760471087.9830353,0,1.770751953125,0.12451171875,0.12481689453125,9.435114503816793,-181.74045801526717,-74.26717557251908,399.26605504587155,-38.53211009174312,4.587155963302752,,
1760471087.9938753,0,1.77093505859375,0.12445068359375,0.12481689453125,9.419847328244275,-119.20610687022901,-21.50381679389313,657.6146788990826,-38.80733944954128,4.4036697247706424,,
1760471088.025713,0,1.77105712890625,0.1243896484375,0.1246337890625,9.419847328244275,-148.51908396946564,-33.229007633587784,610.6422018348624,-39.357798165137616,4.587155963302752,,
1760471088.0572023,0,1.771240234375,0.1243896484375,0.12469482421875,9.427480916030534,-152.42748091603053,-46.908396946564885,516.6972477064221,-38.440366972477065,4.954128440366973,,
1760471088.067917,0,1.7713623046875,0.12432861328125,0.12469482421875,9.419847328244275,-142.65648854961833,-54.725190839694655,516.6972477064221,-38.71559633027523,4.678899082568807,,
1760471088.0893962,0,1.77154541015625,0.12445068359375,0.124755859375,9.419847328244275,-148.51908396946564,-46.908396946564885,446.2385321100918,-39.816513761467895,4.587155963302752,,
1760471088.099957,0,1.77166748046875,0.12445068359375,0.124755859375,9.419847328244275,-175.87786259541986,-25.412213740458014,493.2110091743119,-38.440366972477065,4.128440366972478,,
1760471088.121139,0,1.7718505859375,0.1243896484375,0.1248779296875,9.435114503816793,-164.15267175572518,-21.50381679389313,516.6972477064221,-38.99082568807339,4.495412844036697,,
1760471088.1424081,0,1.77197265625,0.12445068359375,0.12481689453125,9.435114503816793,-168.06106870229007,-31.27480916030534,657.6146788990826,-38.99082568807339,4.770642201834862,,
1760471088.1532745,0,1.77215576171875,0.1243896484375,0.12469482421875,9.427480916030534,-150.4732824427481,-43.0,728.0733944954129,-39.72477064220183,4.678899082568807,,
1760471088.1744108,0,1.77227783203125,0.12445068359375,0.124755859375,9.435114503816793,-138.74809160305344,-68.40458015267176,375.7798165137615,-38.71559633027523,5.321100917431193,,
1760471088.2062426,0,1.7724609375,0.12445068359375,0.12469482421875,9.419847328244275,-115.29770992366412,-56.6793893129771,939.4495412844037,-38.99082568807339,4.4036697247706424,,
1760471088.2170746,0,1.7725830078125,0.12445068359375,0.124755859375,9.427480916030534,-148.51908396946564,-70.3587786259542,469.72477064220186,-38.53211009174312,4.495412844036697,,
1760471088.2383602,0,1.77276611328125,0.12451171875,0.124755859375,9.396946564885496,-177.8320610687023,-35.18320610687023,446.2385321100918,-39.357798165137616,4.954128440366973,,
1760471088.2491193,0,1.77288818359375,0.12445068359375,0.1248779296875,9.427480916030534,-156.33587786259542,-52.770992366412216,1221.2844036697247,-39.72477064220183,4.4036697247706424,,
1760471088.270446,0,1.7730712890625,0.12445068359375,0.12457275390625,9.435114503816793,-158.29007633587787,-66.45038167938931,187.88990825688074,-39.357798165137616,5.321100917431193,,
1760471088.3024426,0,1.773193359375,0.1243896484375,0.124755859375,9.427480916030534,-203.23664122137404,-72.31297709923665,915.9633027522937,-39.54128440366972,4.678899082568807,,
1760471088.3132248,0,1.77337646484375,0.12451171875,0.12469482421875,9.419847328244275,-154.38167938931298,-58.63358778625954,117.43119266055047,-38.99082568807339,4.587155963302752,,
1760471088.334601,0,1.77349853515625,0.12445068359375,0.1248779296875,9.419847328244275,-173.9236641221374,-68.40458015267176,657.6146788990826,-39.08256880733945,4.3119266055045875,,
1760471088.3665671,0,1.773681640625,0.12445068359375,0.12469482421875,9.419847328244275,-170.01526717557252,-74.26717557251908,446.2385321100918,-39.08256880733945,4.220183486238533,,
1760471088.377348,0,1.7738037109375,0.12432861328125,0.12481689453125,9.427480916030534,-140.70229007633588,-87.94656488549619,328.8073394495413,-38.899082568807344,4.954128440366973,,
1760471088.398773,0,1.77398681640625,0.12445068359375,0.1248779296875,9.419847328244275,-134.83969465648855,-56.6793893129771,281.8348623853211,-39.44954128440367,5.137614678899083,,
1760471088.430692,0,1.77410888671875,0.1243896484375,0.1246337890625,9.419847328244275,-166.10687022900763,-50.81679389312977,540.1834862385322,-39.357798165137616,4.770642201834862,,
1760471088.4414637,0,1.7742919921875,0.12451171875,0.1246337890625,9.435114503816793,-140.70229007633588,-37.13740458015267,728.0733944954129,-39.357798165137616,4.4036697247706424,,
1760471088.4628012,0,1.7744140625,0.12445068359375,0.12469482421875,9.404580152671755,-152.42748091603053,-33.229007633587784,751.559633027523,-38.899082568807344,4.678899082568807,,
1760471088.473468,0,1.77459716796875,0.1243896484375,0.12481689453125,9.427480916030534,-132.8854961832061,-23.458015267175572,563.6697247706422,-39.72477064220183,4.862385321100918,,
1760471088.4946826,0,1.77471923828125,0.1243896484375,0.12469482421875,9.396946564885496,-130.93129770992365,-23.458015267175572,775.045871559633,-38.62385321100918,4.587155963302752,,
1760471088.5262496,0,1.77490234375,0.12445068359375,0.12469482421875,9.427480916030534,-146.5648854961832,-50.81679389312977,469.72477064220186,-39.174311926605505,4.862385321100918,,
1760471088.536639,0,1.7750244140625,0.1243896484375,0.12481689453125,9.412213740458014,-173.9236641221374,-37.13740458015267,868.9908256880734,-39.44954128440367,4.587155963302752,,
1760471088.5575826,0,1.77520751953125,0.1243896484375,0.1248779296875,9.419847328244275,-146.5648854961832,-56.6793893129771,751.559633027523,-39.44954128440367,5.229357798165138,,
1760471088.5685449,0,1.77532958984375,0.1243896484375,0.12469482421875,9.419847328244275,-150.4732824427481,-44.954198473282446,775.045871559633,-39.816513761467895,4.036697247706423,,
1760471088.5896096,0,1.7755126953125,0.12432861328125,0.1246337890625,9.412213740458014,-166.10687022900763,-23.458015267175572,375.7798165137615,-38.80733944954128,4.678899082568807,,
1760471088.6208441,0,1.775634765625,0.12445068359375,0.124755859375,9.419847328244275,-132.8854961832061,-52.770992366412216,681.1009174311927,-39.08256880733945,4.495412844036697,,
1760471088.6313503,0,1.77581787109375,0.12451171875,0.12469482421875,9.419847328244275,-140.70229007633588,-31.27480916030534,516.6972477064221,-38.99082568807339,4.954128440366973,,
1760471088.6522233,0,1.77593994140625,0.12445068359375,0.12481689453125,9.419847328244275,-136.793893129771,-56.6793893129771,540.1834862385322,-38.899082568807344,5.229357798165138,,
1760471088.6626997,0,1.776123046875,0.124267578125,0.124755859375,9.435114503816793,-148.51908396946564,-25.412213740458014,399.26605504587155,-38.62385321100918,4.128440366972478,,
1760471088.683504,0,1.7762451171875,0.1243896484375,0.12469482421875,9.412213740458014,-119.20610687022901,-39.091603053435115,704.5871559633028,-38.80733944954128,3.9449541284403673,,
1760471088.7148857,0,1.77642822265625,0.12445068359375,0.1246337890625,9.419847328244275,-168.06106870229007,-43.0,868.9908256880734,-39.08256880733945,4.495412844036697,,
1760471088.7254,0,1.77655029296875,0.12445068359375,0.124755859375,9.427480916030534,-140.70229007633588,-97.7175572519084,563.6697247706422,-38.34862385321101,4.862385321100918,,
1760471088.7464352,0,1.7767333984375,0.12445068359375,0.12469482421875,9.419847328244275,-136.793893129771,-43.0,305.3211009174312,-39.44954128440367,5.137614678899083,,
1760471088.7782092,0,1.77685546875,0.12445068359375,0.124755859375,9.419847328244275,-146.5648854961832,-41.045801526717554,822.0183486238533,-39.08256880733945,4.862385321100918,,
1760471088.7889483,0,1.77703857421875,0.12445068359375,0.124755859375,9.427480916030534,-164.15267175572518,-46.908396946564885,563.6697247706422,-39.26605504587156,4.4036697247706424,,
1760471088.810042,0,1.77716064453125,0.1243896484375,0.12469482421875,9.427480916030534,-168.06106870229007,-43.0,798.5321100917431,-38.34862385321101,3.853211009174312,,
1760471088.820699,0,1.77734375,0.12432861328125,0.1248779296875,9.427480916030534,-138.74809160305344,-64.49618320610686,328.8073394495413,-38.99082568807339,4.587155963302752,,
1760471088.841887,0,1.7774658203125,0.12445068359375,0.124755859375,9.427480916030534,-105.52671755725191,-15.641221374045802,469.72477064220186,-39.174311926605505,4.954128440366973,,
1760471088.8733745,0,1.77764892578125,0.12445068359375,0.12469482421875,9.435114503816793,-134.83969465648855,-7.824427480916031,446.2385321100918,-39.72477064220183,5.321100917431193,,
1760471088.8839767,0,1.77777099609375,0.1243896484375,0.12469482421875,9.389312977099237,-162.19847328244273,-21.50381679389313,399.26605504587155,-39.633027522935784,4.770642201834862,,
1760471088.9050338,0,1.7779541015625,0.1243896484375,0.1246337890625,9.427480916030534,-166.10687022900763,-50.81679389312977,563.6697247706422,-38.440366972477065,4.678899082568807,,
1760471088.9157686,0,1.778076171875,0.1243896484375,0.12481689453125,9.435114503816793,-171.96946564885496,-46.908396946564885,939.4495412844037,-39.26605504587156,4.128440366972478,,
1760471088.936977,0,1.77825927734375,0.1243896484375,0.12469482421875,9.412213740458014,-156.33587786259542,-48.86259541984733,634.1284403669725,-39.174311926605505,5.045871559633028,,
1760471088.9688227,0,1.77838134765625,0.12445068359375,0.12469482421875,9.419847328244275,-181.74045801526717,-46.908396946564885,1033.3944954128442,-38.899082568807344,4.770642201834862,,
1760471089.000386,0,1.778564453125,0.12432861328125,0.124755859375,9.419847328244275,-170.01526717557252,-82.08396946564885,845.5045871559633,-39.357798165137616,5.045871559633028,,
1760471089.010982,0,1.7786865234375,0.12445068359375,0.12481689453125,9.404580152671755,-130.93129770992365,-54.725190839694655,446.2385321100918,-38.53211009174312,4.495412844036697,,
1760471089.0319502,0,1.77886962890625,0.12445068359375,0.12481689453125,9.427480916030534,-158.29007633587787,-78.17557251908397,657.6146788990826,-38.99082568807339,4.495412844036697,,
1760471089.0636091,0,1.77899169921875,0.1243896484375,0.12469482421875,9.419847328244275,-140.70229007633588,-54.725190839694655,634.1284403669725,-39.174311926605505,4.128440366972478,,
1760471089.0742521,0,1.7791748046875,0.1243896484375,0.12481689453125,9.419847328244275,-144.61068702290078,-11.732824427480915,657.6146788990826,-39.26605504587156,4.678899082568807,,
1760471089.0849156,0,1.779296875,0.12451171875,0.1248779296875,9.435114503816793,-140.70229007633588,-58.63358778625954,681.1009174311927,-38.80733944954128,4.495412844036697,,
1760471089.095797,0,1.77947998046875,0.12445068359375,0.12469482421875,9.412213740458014,-158.29007633587787,9.770992366412214,657.6146788990826,-39.908256880733944,5.137614678899083,,
1760471089.1274877,0,1.77960205078125,0.12445068359375,0.12481689453125,9.404580152671755,-152.42748091603053,-58.63358778625954,681.1009174311927,-39.816513761467895,4.220183486238533,,
1760471089.1382356,0,1.77978515625,0.1243896484375,0.1248779296875,9.427480916030534,-111.38931297709924,-39.091603053435115,540.1834862385322,-38.62385321100918,4.770642201834862,,
1760471089.1594481,0,1.7799072265625,0.12445068359375,0.1246337890625,9.404580152671755,-144.61068702290078,-52.770992366412216,164.40366972477065,-39.08256880733945,3.853211009174312,,
1760471089.1910634,0,1.78009033203125,0.1243896484375,0.124755859375,9.419847328244275,-150.4732824427481,-66.45038167938931,775.045871559633,-38.99082568807339,4.220183486238533,,
1760471089.201801,0,1.78021240234375,0.12445068359375,0.12469482421875,9.427480916030534,-164.15267175572518,-23.458015267175572,446.2385321100918,-39.908256880733944,5.229357798165138,,
1760471089.223308,0,1.7803955078125,0.12445068359375,0.1248779296875,9.419847328244275,-142.65648854961833,-66.45038167938931,845.5045871559633,-38.80733944954128,5.137614678899083,,
1760471089.2340593,0,1.780517578125,0.1243896484375,0.124755859375,9.412213740458014,-152.42748091603053,-48.86259541984733,328.8073394495413,-39.174311926605505,4.4036697247706424,,
1760471089.2553136,0,1.78070068359375,0.12432861328125,0.12481689453125,9.419847328244275,-138.74809160305344,-62.541984732824424,634.1284403669725,-38.899082568807344,4.495412844036697,,
1760471089.2766194,0,1.78082275390625,0.12451171875,0.124755859375,9.404580152671755,-148.51908396946564,-52.770992366412216,610.6422018348624,-38.899082568807344,4.678899082568807,,
1760471089.2875123,0,1.781005859375,0.12451171875,0.12469482421875,9.427480916030534,-146.5648854961832,-52.770992366412216,422.7522935779817,-38.80733944954128,4.4036697247706424,,
1760471089.3090146,0,1.7811279296875,0.1243896484375,0.12469482421875,9.419847328244275,-150.4732824427481,-17.595419847328245,986.4220183486239,-39.816513761467895,4.954128440366973,,
1760471089.3513112,0,1.78131103515625,0.12445068359375,0.12481689453125,9.419847328244275,-187.6030534351145,-56.6793893129771,211.37614678899084,-38.899082568807344,4.862385321100918,,
1760471089.3619752,0,1.78143310546875,0.1243896484375,0.12469482421875,9.404580152671755,-134.83969465648855,-31.27480916030534,187.88990825688074,-39.08256880733945,4.495412844036697,,
1760471089.3833191,0,1.7816162109375,0.12445068359375,0.124755859375,9.427480916030534,-154.38167938931298,-43.0,563.6697247706422,-38.899082568807344,4.954128440366973,,
1760471089.4046314,0,1.78173828125,0.12445068359375,0.12469482421875,9.412213740458014,-136.793893129771,-3.9160305343511452,751.559633027523,-38.71559633027523,3.9449541284403673,,
1760471089.4152315,0,1.78192138671875,0.1243896484375,0.124755859375,9.404580152671755,-158.29007633587787,-50.81679389312977,798.5321100917431,-39.633027522935784,4.862385321100918,,
1760471089.4364655,0,1.78204345703125,0.12445068359375,0.1248779296875,9.427480916030534,-156.33587786259542,-37.13740458015267,751.559633027523,-38.80733944954128,4.495412844036697,,
1760471089.4473083,0,1.7822265625,0.12451171875,0.12469482421875,9.427480916030534,-170.01526717557252,-48.86259541984733,516.6972477064221,-38.80733944954128,4.954128440366973,,
1760471089.468577,0,1.7823486328125,0.1243896484375,0.124755859375,9.427480916030534,-166.10687022900763,-25.412213740458014,681.1009174311927,-38.80733944954128,5.045871559633028,,
1760471089.4792945,0,1.78253173828125,0.1243896484375,0.124755859375,9.435114503816793,-156.33587786259542,-66.45038167938931,868.9908256880734,-38.899082568807344,4.678899082568807,,
1760471089.5005867,0,1.78265380859375,0.12432861328125,0.124755859375,9.419847328244275,-144.61068702290078,-29.3206106870229,868.9908256880734,-38.99082568807339,4.4036697247706424,,
1760471089.5640666,0,1.7828369140625,0.1243896484375,0.12481689453125,9.419847328244275,-146.5648854961832,-82.08396946564885,328.8073394495413,-38.899082568807344,4.3119266055045875,,
1760471089.5748825,0,1.782958984375,0.1243896484375,0.12493896484375,9.427480916030534,-162.19847328244273,-46.908396946564885,657.6146788990826,-38.899082568807344,4.495412844036697,,
1760471089.585597,0,1.78314208984375,0.1243896484375,0.12469482421875,9.442748091603054,-138.74809160305344,-15.641221374045802,845.5045871559633,-38.899082568807344,5.229357798165138,,
1760471089.5963953,0,1.78326416015625,0.12432861328125,0.1246337890625,9.412213740458014,-134.83969465648855,-66.45038167938931,493.2110091743119,-38.80733944954128,4.678899082568807,,
1760471089.6071959,0,1.783447265625,0.12457275390625,0.12481689453125,9.404580152671755,-175.87786259541986,-13.687022900763358,328.8073394495413,-39.44954128440367,4.587155963302752,,
1760471089.628396,0,1.7835693359375,0.12445068359375,0.124755859375,9.419847328244275,-130.93129770992365,-62.541984732824424,986.4220183486239,-39.908256880733944,4.495412844036697,,
1760471089.6499329,0,1.78375244140625,0.12445068359375,0.1246337890625,9.419847328244275,-156.33587786259542,-31.27480916030534,822.0183486238533,-38.80733944954128,4.220183486238533,,
1760471089.6607294,0,1.78387451171875,0.12432861328125,0.12469482421875,9.404580152671755,-170.01526717557252,-78.17557251908397,446.2385321100918,-39.26605504587156,5.137614678899083,,
1760471089.682102,0,1.7840576171875,0.1243896484375,0.12469482421875,9.404580152671755,-152.42748091603053,-66.45038167938931,587.1559633027523,-39.357798165137616,4.862385321100918,,
1760471089.6928458,0,1.7841796875,0.12445068359375,0.1246337890625,9.427480916030534,-162.19847328244273,-41.045801526717554,892.4770642201836,-38.71559633027523,3.9449541284403673,,
1760471089.7140596,0,1.78436279296875,0.1243896484375,0.124755859375,9.419847328244275,-134.83969465648855,-29.3206106870229,728.0733944954129,-38.899082568807344,4.4036697247706424,,
1760471089.7459679,0,1.78448486328125,0.12432861328125,0.124755859375,9.404580152671755,-160.24427480916032,-11.732824427480915,375.7798165137615,-39.26605504587156,4.128440366972478,,
1760471089.75681,0,1.78466796875,0.1243896484375,0.12481689453125,9.412213740458014,-154.38167938931298,-54.725190839694655,469.72477064220186,-38.99082568807339,5.045871559633028,,
1760471089.7780657,0,1.7847900390625,0.12432861328125,0.124755859375,9.427480916030534,-132.8854961832061,-39.091603053435115,305.3211009174312,-39.72477064220183,4.3119266055045875,,
1760471089.8100014,0,1.78497314453125,0.12445068359375,0.124755859375,9.412213740458014,-162.19847328244273,-11.732824427480915,634.1284403669725,-38.99082568807339,5.137614678899083,,
1760471089.8207824,0,1.78509521484375,0.1243896484375,0.1248779296875,9.412213740458014,-142.65648854961833,-31.27480916030534,962.9357798165138,-38.71559633027523,4.495412844036697,,
1760471089.8421652,0,1.7852783203125,0.12445068359375,0.124755859375,9.419847328244275,-171.96946564885496,-74.26717557251908,962.9357798165138,-39.174311926605505,4.3119266055045875,,
1760471089.8740726,0,1.785400390625,0.12432861328125,0.1248779296875,9.412213740458014,-166.10687022900763,-50.81679389312977,657.6146788990826,-38.07339449541284,4.3119266055045875,,
1760471089.8848734,0,1.78558349609375,0.12451171875,0.1246337890625,9.427480916030534,-168.06106870229007,-64.49618320610686,1080.3669724770643,-39.174311926605505,4.862385321100918,,
1760471089.906319,0,1.78570556640625,0.1243896484375,0.12469482421875,9.396946564885496,-160.24427480916032,-29.3206106870229,704.5871559633028,-38.62385321100918,4.862385321100918,,
1760471089.9171224,0,1.785888671875,0.1243896484375,0.12469482421875,9.419847328244275,-132.8854961832061,0.0,775.045871559633,-39.26605504587156,5.045871559633028,,
1760471089.9383936,0,1.7860107421875,0.12451171875,0.124755859375,9.427480916030534,-119.20610687022901,-31.27480916030534,681.1009174311927,-39.08256880733945,5.045871559633028,,
1760471089.959731,0,1.78619384765625,0.12451171875,0.12481689453125,9.419847328244275,-162.19847328244273,-50.81679389312977,540.1834862385322,-38.62385321100918,4.3119266055045875,,
1760471089.9703686,0,1.78631591796875,0.12445068359375,0.124755859375,9.427480916030534,-138.74809160305344,-29.3206106870229,634.1284403669725,-39.08256880733945,3.9449541284403673,,
1760471089.9915655,0,1.7864990234375,0.12445068359375,0.1246337890625,9.419847328244275,-183.6946564885496,-72.31297709923665,352.2935779816514,-38.71559633027523,5.321100917431193,,
1760471090.023521,0,1.78662109375,0.1243896484375,0.12481689453125,9.427480916030534,-140.70229007633588,-44.954198473282446,446.2385321100918,-38.99082568807339,4.4036697247706424,,
1760471090.0342147,0,1.78680419921875,0.1243896484375,0.124755859375,9.404580152671755,-146.5648854961832,-37.13740458015267,915.9633027522937,-38.99082568807339,5.137614678899083,,
1760471090.0554378,0,1.78692626953125,0.1243896484375,0.12469482421875,9.396946564885496,-115.29770992366412,-66.45038167938931,540.1834862385322,-39.357798165137616,4.128440366972478,,
1760471090.0871682,0,1.787109375,0.12432861328125,0.12457275390625,9.427480916030534,-173.9236641221374,-48.86259541984733,610.6422018348624,-39.357798165137616,4.954128440366973,,
1760471090.097925,0,1.7872314453125,0.12451171875,0.124755859375,9.396946564885496,-144.61068702290078,-54.725190839694655,563.6697247706422,-39.174311926605505,4.770642201834862,,
1760471090.1193094,0,1.78741455078125,0.1243896484375,0.1248779296875,9.427480916030534,-154.38167938931298,-52.770992366412216,610.6422018348624,-39.08256880733945,4.587155963302752,,
1760471090.1300514,0,1.78753662109375,0.1243896484375,0.12469482421875,9.412213740458014,-170.01526717557252,-27.366412213740457,728.0733944954129,-38.899082568807344,5.321100917431193,,
1760471090.1514444,0,1.7877197265625,0.1243896484375,0.12469482421875,9.412213740458014,-154.38167938931298,-62.541984732824424,587.1559633027523,-39.174311926605505,4.587155963302752,,
1760471090.1622837,0,1.787841796875,0.1243896484375,0.12469482421875,9.412213740458014,-156.33587786259542,-27.366412213740457,563.6697247706422,-38.80733944954128,4.678899082568807,,
1760471090.183445,0,1.78802490234375,0.12451171875,0.12469482421875,9.427480916030534,-146.5648854961832,-25.412213740458014,634.1284403669725,-39.54128440366972,4.587155963302752,,
1760471090.21533,0,1.78814697265625,0.12445068359375,0.12469482421875,9.427480916030534,-158.29007633587787,-56.6793893129771,516.6972477064221,-39.44954128440367,4.4036697247706424,,
1760471090.2471287,0,1.788330078125,0.12445068359375,0.124755859375,9.412213740458014,-171.96946564885496,-11.732824427480915,915.9633027522937,-39.08256880733945,4.678899082568807,,
1760471090.2578928,0,1.7884521484375,0.12445068359375,0.12469482421875,9.412213740458014,-170.01526717557252,-78.17557251908397,892.4770642201836,-39.26605504587156,4.954128440366973,,
1760471090.279297,0,1.78863525390625,0.1243896484375,0.124755859375,9.427480916030534,-177.8320610687023,-33.229007633587784,915.9633027522937,-39.72477064220183,3.9449541284403673,,
