timestamp,packet_id,accel_x,accel_y,accel_z,gyro_x,gyro_y,gyro_z,mag_x,mag_y,mag_z,battery,temperature
1760466730.6120539,0,149.20542857142857,165.5698021978022,-143.50628571428572,1.9465648854961832,-236.9770992366412,-17.72519083969466,-210.73394495412842,-1056.2385321100917,0.3669724770642202,,
1760466730.6232302,1,143.65002197802198,167.40962637362637,-139.82663736263737,1.9465648854961832,-232.0916030534351,-15.770992366412214,-257.70642201834863,-1079.7247706422017,0.3669724770642202,,
1760466730.633706,2,151.0165054945055,163.72997802197804,-136.14698901098902,1.9465648854961832,-227.206106870229,-17.72519083969466,-234.2201834862385,-1056.2385321100917,0.3669724770642202,,
1760466730.6442273,3,160.2803076923077,160.05032967032966,-139.82663736263737,1.9465648854961832,-222.3206106870229,-15.770992366412214,-210.73394495412842,-1032.7522935779816,0.3669724770642202,,
1760466730.6548219,4,160.2803076923077,171.08927472527472,-137.98681318681318,1.9465648854961832,-217.4351145038168,-17.72519083969466,-187.24770642201835,-1079.7247706422017,0.3669724770642202,,
1760466730.6655154,5,138.18085714285715,161.89015384615388,-152.7054065934066,1.9465648854961832,-212.54961832061068,-15.770992366412214,-187.24770642201835,-1103.2110091743118,0.3669724770642202,,
1760466730.6762002,6,151.074,160.05032967032966,-141.66646153846156,1.9465648854961832,-207.66412213740458,-19.6793893129771,-257.70642201834863,-1079.7247706422017,0.3669724770642202,,
1760466730.6869287,7,149.1551208791209,160.05032967032966,-139.82663736263737,1.9465648854961832,-202.77862595419847,-17.72519083969466,-234.2201834862385,-1056.2385321100917,0.3669724770642202,,
1760466730.697743,8,147.38716483516484,141.65208791208792,-149.02575824175824,1.9465648854961832,-197.89312977099237,-17.72519083969466,-234.2201834862385,-1079.7247706422017,0.3669724770642202,,
1760466730.7085652,9,156.55035164835166,163.72997802197804,-134.30716483516483,1.9465648854961832,-193.00763358778627,-17.72519083969466,-234.2201834862385,-1150.1834862385322,0.3669724770642202,,
1760466730.7192922,10,156.47848351648352,165.5698021978022,-137.98681318681318,1.9465648854961832,-188.12213740458014,-17.72519083969466,-210.73394495412842,-1056.2385321100917,0.3669724770642202,,
1760466730.729989,11,154.79676923076926,176.60874725274726,-137.98681318681318,1.9465648854961832,-183.23664122137404,-15.770992366412214,-163.76146788990826,-1032.7522935779816,0.3669724770642202,,
1760466730.7408156,12,147.32967032967034,167.40962637362637,-136.14698901098902,1.9465648854961832,-178.35114503816794,-15.770992366412214,-210.73394495412842,-1056.2385321100917,0.3669724770642202,,
1760466730.7725947,13,152.8707032967033,163.72997802197804,-147.18593406593408,1.9465648854961832,-173.46564885496184,-17.72519083969466,-210.73394495412842,-1032.7522935779816,0.3669724770642202,,
1760466730.7833788,14,134.50839560439562,145.33173626373627,-132.46734065934066,1.9465648854961832,-168.5801526717557,-19.6793893129771,-210.73394495412842,-1032.7522935779816,0.3669724770642202,,
1760466730.804758,15,151.1171208791209,158.2105054945055,-141.66646153846156,1.9465648854961832,-163.6946564885496,-17.72519083969466,-210.73394495412842,-1126.697247706422,0.3669724770642202,,
1760466730.8154666,16,154.8183296703297,172.9290989010989,-145.34610989010991,1.9465648854961832,-158.8091603053435,-13.816793893129772,-257.70642201834863,-1079.7247706422017,0.3669724770642202,,
1760466730.8366282,17,152.83476923076924,167.40962637362637,-132.46734065934066,1.9465648854961832,-153.9236641221374,-15.770992366412214,-234.2201834862385,-1056.2385321100917,0.3669724770642202,,
1760466730.8683167,18,152.8635164835165,163.72997802197804,-143.50628571428572,1.9465648854961832,-149.0381679389313,-15.770992366412214,-210.73394495412842,-1056.2385321100917,0.3669724770642202,,
1760466730.8788748,19,139.99912087912088,154.53085714285717,-125.10804395604397,1.9465648854961832,-144.15267175572518,-13.816793893129772,-187.24770642201835,-1032.7522935779816,0.3669724770642202,,
1760466730.9002173,20,147.37997802197802,150.8512087912088,-141.66646153846156,1.9465648854961832,-139.26717557251908,-17.72519083969466,-234.2201834862385,-1056.2385321100917,0.3669724770642202,,
1760466730.910935,21,152.85632967032967,167.40962637362637,-132.46734065934066,1.9465648854961832,-134.38167938931298,-13.816793893129772,-234.2201834862385,-1056.2385321100917,0.3669724770642202,,
1760466730.9322677,22,145.53296703296704,161.89015384615388,-134.30716483516483,1.9465648854961832,-129.49618320610688,-19.6793893129771,-210.73394495412842,-1103.2110091743118,0.3669724770642202,,
1760466730.9640646,23,149.25573626373625,165.5698021978022,-139.82663736263737,1.9465648854961832,-124.61068702290076,-15.770992366412214,-234.2201834862385,-1079.7247706422017,0.3669724770642202,,
1760466730.974742,24,147.4734065934066,163.72997802197804,-136.14698901098902,1.9465648854961832,-119.72519083969466,-15.770992366412214,-234.2201834862385,-1126.697247706422,0.3669724770642202,,
1760466730.9960613,25,152.82758241758242,165.5698021978022,-136.14698901098902,1.9465648854961832,-114.83969465648855,-15.770992366412214,-210.73394495412842,-1032.7522935779816,0.3669724770642202,,
1760466731.027715,26,147.3656043956044,163.72997802197804,-141.66646153846156,1.9465648854961832,-109.95419847328245,-13.816793893129772,-210.73394495412842,-1009.2660550458716,0.3669724770642202,,
1760466731.0383658,27,160.35217582417582,161.89015384615388,-139.82663736263737,1.9465648854961832,-105.06870229007633,-13.816793893129772,-187.24770642201835,-1079.7247706422017,0.3669724770642202,,
1760466731.059603,28,152.77727472527474,169.24945054945056,-139.82663736263737,1.9465648854961832,-100.18320610687023,-15.770992366412214,-187.24770642201835,-1032.7522935779816,0.3669724770642202,,
1760466731.0911644,29,149.24854945054946,161.89015384615388,-130.6275164835165,1.9465648854961832,-95.29770992366412,-17.72519083969466,-210.73394495412842,-1079.7247706422017,0.3669724770642202,,
1760466731.1018863,30,156.615032967033,174.7689230769231,-141.66646153846156,1.9465648854961832,-90.41221374045801,-17.72519083969466,-210.73394495412842,-1056.2385321100917,0.3669724770642202,,
1760466731.1124482,31,141.86769230769232,160.05032967032966,-141.66646153846156,1.9465648854961832,-85.52671755725191,-13.816793893129772,-210.73394495412842,-1079.7247706422017,0.3669724770642202,,
1760466731.1231225,32,154.86145054945055,163.72997802197804,-128.7876923076923,1.9465648854961832,-80.6412213740458,-19.6793893129771,-187.24770642201835,-1079.7247706422017,0.3669724770642202,,
1760466731.1548433,33,151.08118681318683,172.9290989010989,-132.46734065934066,1.9465648854961832,-75.7557251908397,-17.72519083969466,-187.24770642201835,-1079.7247706422017,0.3669724770642202,,
1760466731.1653726,34,151.02369230769233,172.9290989010989,-134.30716483516483,1.9465648854961832,-70.87022900763358,-19.6793893129771,-187.24770642201835,-1103.2110091743118,0.3669724770642202,,
1760466731.1861286,35,145.5545274725275,176.60874725274726,-137.98681318681318,1.9465648854961832,-65.98473282442748,-19.6793893129771,-187.24770642201835,-1126.697247706422,0.3669724770642202,,
1760466731.217464,36,151.03806593406594,158.2105054945055,-136.14698901098902,1.9465648854961832,-61.099236641221374,-23.587786259541986,-210.73394495412842,-1079.7247706422017,0.3669724770642202,,
1760466731.228106,37,152.89945054945056,156.37068131868133,-139.82663736263737,1.9465648854961832,-56.213740458015266,-17.72519083969466,-234.2201834862385,-1056.2385321100917,0.3669724770642202,,
1760466731.2492237,38,147.4159120879121,167.40962637362637,-139.82663736263737,1.9465648854961832,-51.32824427480916,-17.72519083969466,-257.70642201834863,-1103.2110091743118,0.3669724770642202,,
1760466731.2598748,39,129.03923076923078,163.72997802197804,-147.18593406593408,1.9465648854961832,-46.44274809160305,-17.72519083969466,-234.2201834862385,-1009.2660550458716,0.3669724770642202,,
1760466731.2809381,40,151.05962637362637,165.5698021978022,-132.46734065934066,1.9465648854961832,-41.55725190839695,-15.770992366412214,-210.73394495412842,-985.7798165137615,0.3669724770642202,,
1760466731.3123531,41,154.79676923076926,169.24945054945056,-145.34610989010991,1.9465648854961832,-36.67175572519084,-19.6793893129771,-187.24770642201835,-1150.1834862385322,0.3669724770642202,,
1760466731.32299,42,145.612021978022,152.69103296703298,-137.98681318681318,1.9465648854961832,-31.786259541984734,-17.72519083969466,-257.70642201834863,-1032.7522935779816,0.3669724770642202,,
1760466731.3441865,43,145.63358241758243,154.53085714285717,-141.66646153846156,1.9465648854961832,-26.900763358778626,-19.6793893129771,-210.73394495412842,-1032.7522935779816,0.3669724770642202,,
1760466731.354749,44,156.57909890109892,160.05032967032966,-136.14698901098902,1.9465648854961832,-22.015267175572518,-15.770992366412214,-234.2201834862385,-1032.7522935779816,0.3669724770642202,,
1760466731.3758774,45,154.8901978021978,156.37068131868133,-137.98681318681318,1.9465648854961832,-17.129770992366414,-21.633587786259543,-210.73394495412842,-1079.7247706422017,0.3669724770642202,,
1760466731.407424,46,162.05545054945057,174.7689230769231,-137.98681318681318,1.9465648854961832,-12.244274809160306,-15.770992366412214,-234.2201834862385,-1079.7247706422017,0.3669724770642202,,
1760466731.4180748,47,150.98775824175826,178.44857142857143,-132.46734065934066,1.9465648854961832,-7.358778625954199,-17.72519083969466,-257.70642201834863,-1032.7522935779816,0.3669724770642202,,
1760466731.4391425,48,162.17043956043958,161.89015384615388,-137.98681318681318,1.9465648854961832,-2.4732824427480917,-15.770992366412214,-187.24770642201835,-1079.7247706422017,0.3669724770642202,,
1760466731.4498205,49,145.54734065934068,167.40962637362637,-132.46734065934066,1.9465648854961832,2.4122137404580153,-15.763358778625955,-257.70642201834863,-1032.7522935779816,0.3669724770642202,,
1760466731.5021238,50,154.7177142857143,163.72997802197804,-137.98681318681318,1.9465648854961832,7.297709923664122,-21.625954198473284,-234.2201834862385,-1103.2110091743118,0.3669724770642202,,
1760466731.5127032,51,154.7105274725275,158.2105054945055,-137.98681318681318,1.9465648854961832,12.183206106870228,-17.717557251908396,-234.2201834862385,-1009.2660550458716,0.3669724770642202,,
1760466731.5233495,52,143.69314285714285,171.08927472527472,-141.66646153846156,1.9465648854961832,17.068702290076335,-17.717557251908396,-257.70642201834863,-1079.7247706422017,0.3669724770642202,,
1760466731.5341582,53,147.35123076923077,167.40962637362637,-136.14698901098902,1.9465648854961832,21.954198473282442,-13.80916030534351,-210.73394495412842,-1126.697247706422,0.3669724770642202,,
1760466731.5655844,54,141.88206593406593,154.53085714285717,-137.98681318681318,1.9465648854961832,26.83969465648855,-19.671755725190838,-210.73394495412842,-1126.697247706422,0.3669724770642202,,
1760466731.5762095,55,158.4261098901099,156.37068131868133,-143.50628571428572,1.9465648854961832,31.72519083969466,-15.763358778625955,-234.2201834862385,-1079.7247706422017,0.3669724770642202,,
1760466731.5973492,56,154.74646153846155,156.37068131868133,-143.50628571428572,1.9465648854961832,36.61068702290076,-15.763358778625955,-210.73394495412842,-1009.2660550458716,0.3669724770642202,,
1760466731.6288676,57,143.70751648351649,174.7689230769231,-134.30716483516483,1.9465648854961832,41.49618320610687,-17.717557251908396,-234.2201834862385,-1126.697247706422,0.3669724770642202,,
1760466731.6394331,58,162.14887912087914,172.9290989010989,-137.98681318681318,1.9465648854961832,46.38167938931298,-19.671755725190838,-187.24770642201835,-1056.2385321100917,0.3669724770642202,,
1760466731.660546,59,154.768021978022,169.24945054945056,-147.18593406593408,1.9465648854961832,51.267175572519086,-17.717557251908396,-210.73394495412842,-1056.2385321100917,0.3669724770642202,,
1760466731.6711228,60,149.23417582417582,163.72997802197804,-132.46734065934066,1.9465648854961832,56.152671755725194,-19.671755725190838,-257.70642201834863,-1079.7247706422017,0.3669724770642202,,
1760466731.6923716,61,151.08118681318683,161.89015384615388,-137.98681318681318,1.9465648854961832,61.038167938931295,-17.717557251908396,-234.2201834862385,-1009.2660550458716,0.3669724770642202,,
1760466731.7030003,62,138.29584615384616,167.40962637362637,-134.30716483516483,1.9465648854961832,65.92366412213741,-19.671755725190838,-234.2201834862385,-1126.697247706422,0.3669724770642202,,
1760466731.724132,63,149.24854945054946,156.37068131868133,-134.30716483516483,1.9465648854961832,70.80916030534351,-15.763358778625955,-210.73394495412842,-985.7798165137615,0.3669724770642202,,
1760466731.7557437,64,152.89945054945056,174.7689230769231,-126.94786813186813,1.9465648854961832,75.69465648854961,-17.717557251908396,-234.2201834862385,-1056.2385321100917,0.3669724770642202,,
1760466731.766418,65,167.65397802197802,165.5698021978022,-134.30716483516483,1.9465648854961832,80.58015267175573,-17.717557251908396,-281.1926605504587,-1009.2660550458716,0.3669724770642202,,
1760466731.7877007,66,151.09556043956044,165.5698021978022,-132.46734065934066,1.9465648854961832,85.46564885496183,-17.717557251908396,-210.73394495412842,-1056.2385321100917,0.3669724770642202,,
1760466731.8192775,67,149.2198021978022,158.2105054945055,-137.98681318681318,1.9465648854961832,90.35114503816794,-17.717557251908396,-234.2201834862385,-1056.2385321100917,0.3669724770642202,,
1760466731.8299835,68,138.08024175824175,160.05032967032966,-136.14698901098902,1.9465648854961832,95.23664122137404,-17.717557251908396,-234.2201834862385,-1032.7522935779816,0.3669724770642202,,
1760466731.8511167,69,162.13450549450553,163.72997802197804,-141.66646153846156,1.9465648854961832,100.12213740458016,-15.763358778625955,-210.73394495412842,-1056.2385321100917,0.3669724770642202,,
1760466731.8825529,70,145.51859340659342,189.4875164835165,-136.14698901098902,1.9465648854961832,105.00763358778626,-19.671755725190838,-234.2201834862385,-1056.2385321100917,0.3669724770642202,,
1760466731.8932269,71,154.7752087912088,158.2105054945055,-137.98681318681318,1.9465648854961832,109.89312977099236,-19.671755725190838,-210.73394495412842,-1079.7247706422017,0.3669724770642202,,
1760466731.9143121,72,152.97131868131868,167.40962637362637,-132.46734065934066,1.9465648854961832,114.77862595419847,-15.763358778625955,-210.73394495412842,-1056.2385321100917,0.3669724770642202,,
1760466731.9249287,73,147.48778021978023,161.89015384615388,-136.14698901098902,1.9465648854961832,119.66412213740458,-19.671755725190838,-234.2201834862385,-1056.2385321100917,0.3669724770642202,,
1760466731.9461386,74,154.78239560439562,169.24945054945056,-143.50628571428572,1.9465648854961832,124.54961832061069,-17.717557251908396,-257.70642201834863,-1056.2385321100917,0.3669724770642202,,
1760466731.9776225,75,152.98569230769232,169.24945054945056,-143.50628571428572,1.9465648854961832,129.4351145038168,-17.717557251908396,-234.2201834862385,-1056.2385321100917,0.3669724770642202,,
1760466731.988311,76,160.2371868131868,180.2883956043956,-134.30716483516483,1.9465648854961832,134.3206106870229,-13.80916030534351,-234.2201834862385,-1079.7247706422017,0.3669724770642202,,
1760466732.030391,77,149.24854945054946,158.2105054945055,-141.66646153846156,1.9465648854961832,139.206106870229,-15.763358778625955,-234.2201834862385,-1079.7247706422017,0.3669724770642202,,
1760466732.041,78,143.70032967032967,156.37068131868133,-147.18593406593408,1.9465648854961832,144.0916030534351,-17.717557251908396,-234.2201834862385,-1032.7522935779816,0.3669724770642202,,
1760466732.0515022,79,152.79883516483517,149.01138461538463,-132.46734065934066,1.9465648854961832,148.9770992366412,-21.625954198473284,-281.1926605504587,-1079.7247706422017,0.3669724770642202,,
1760466732.0621767,80,154.7105274725275,160.05032967032966,-128.7876923076923,1.9465648854961832,153.86259541984734,-15.763358778625955,-187.24770642201835,-1056.2385321100917,0.3669724770642202,,
1760466732.0728788,81,140.07817582417584,165.5698021978022,-128.7876923076923,1.9465648854961832,158.74809160305344,-15.763358778625955,-210.73394495412842,-1056.2385321100917,0.3669724770642202,,
1760466732.1043856,82,154.7249010989011,167.40962637362637,-134.30716483516483,1.9465648854961832,163.63358778625954,-19.671755725190838,-187.24770642201835,-1056.2385321100917,0.3669724770642202,,
1760466732.1255054,83,156.50004395604395,178.44857142857143,-136.14698901098902,1.9465648854961832,168.51908396946564,-19.671755725190838,-210.73394495412842,-1126.697247706422,0.3669724770642202,,
1760466732.136196,84,149.2198021978022,156.37068131868133,-141.66646153846156,1.9465648854961832,173.40458015267177,-17.717557251908396,-234.2201834862385,-1032.7522935779816,0.3669724770642202,,
1760466732.1570823,85,149.11918681318681,165.5698021978022,-139.82663736263737,1.9465648854961832,178.29007633587787,-15.763358778625955,-234.2201834862385,-1126.697247706422,0.3669724770642202,,
1760466732.1887329,86,151.03806593406594,163.72997802197804,-141.66646153846156,1.9465648854961832,183.17557251908397,-17.717557251908396,-257.70642201834863,-1079.7247706422017,0.3669724770642202,,
1760466732.1994104,87,160.20125274725274,163.72997802197804,-134.30716483516483,1.9465648854961832,188.06106870229007,-19.671755725190838,-234.2201834862385,-1103.2110091743118,0.3669724770642202,,
1760466732.231305,88,152.94975824175825,158.2105054945055,-130.6275164835165,1.9465648854961832,192.94656488549617,-17.717557251908396,-281.1926605504587,-1056.2385321100917,0.3669724770642202,,
1760466732.2419586,89,167.6899120879121,165.5698021978022,-139.82663736263737,1.9465648854961832,197.8320610687023,-21.625954198473284,-234.2201834862385,-1056.2385321100917,0.3669724770642202,,
1760466732.263092,90,152.921010989011,165.5698021978022,-136.14698901098902,1.9465648854961832,202.7175572519084,-17.717557251908396,-187.24770642201835,-1079.7247706422017,0.3669724770642202,,
1760466732.2736626,91,145.497032967033,154.53085714285717,-134.30716483516483,1.9465648854961832,207.6030534351145,-17.717557251908396,-210.73394495412842,-1079.7247706422017,0.3669724770642202,,
1760466732.2948577,92,150.90870329670332,163.72997802197804,-132.46734065934066,1.9465648854961832,212.4885496183206,-19.671755725190838,-234.2201834862385,-1079.7247706422017,0.3669724770642202,,
1760466732.326316,93,147.39435164835166,163.72997802197804,-143.50628571428572,1.9465648854961832,217.3740458015267,-19.671755725190838,-234.2201834862385,-985.7798165137615,0.3669724770642202,,
1760466732.3369682,94,161.98358241758245,178.44857142857143,-137.98681318681318,1.9465648854961832,222.25954198473283,-17.717557251908396,-304.6788990825688,-1056.2385321100917,0.3669724770642202,,
1760466732.3581953,95,147.38716483516484,160.05032967032966,-137.98681318681318,1.9465648854961832,227.14503816793894,-19.671755725190838,-257.70642201834863,-1032.7522935779816,0.3669724770642202,,
1760466732.3897614,96,147.43028571428573,152.69103296703298,-137.98681318681318,1.9465648854961832,232.03053435114504,-15.763358778625955,-187.24770642201835,-1009.2660550458716,0.3669724770642202,,
1760466732.4003975,97,158.50516483516483,150.8512087912088,-134.30716483516483,1.9465648854961832,236.91603053435114,-15.763358778625955,-257.70642201834863,-1032.7522935779816,0.3669724770642202,,
1760466732.421706,98,156.58628571428574,171.08927472527472,-143.50628571428572,1.9465648854961832,241.80152671755727,-17.717557251908396,-234.2201834862385,-1056.2385321100917,0.3669724770642202,,
1760466732.4324563,99,154.6674065934066,171.08927472527472,-139.82663736263737,1.9465648854961832,246.68702290076337,-15.763358778625955,-234.2201834862385,-1056.2385321100917,0.3669724770642202,,
1760466732.4535859,100,147.37279120879123,174.7689230769231,-136.14698901098902,1.9465648854961832,-248.70229007633588,-17.717557251908396,-281.1926605504587,-1032.7522935779816,0.3669724770642202,,
1760466732.4851177,101,158.47641758241758,176.60874725274726,-130.6275164835165,1.9465648854961832,-243.81679389312978,-15.763358778625955,-210.73394495412842,-1056.2385321100917,0.3669724770642202,,
1760466732.4957182,102,156.50004395604395,163.72997802197804,-136.14698901098902,1.9465648854961832,-238.93129770992365,-17.717557251908396,-210.73394495412842,-1056.2385321100917,0.3669724770642202,,
1760466732.5168474,103,154.70334065934068,149.01138461538463,-143.50628571428572,1.9465648854961832,-234.04580152671755,-17.717557251908396,-234.2201834862385,-1103.2110091743118,0.3669724770642202,,
1760466732.5274522,104,152.91382417582417,160.05032967032966,-136.14698901098902,1.9465648854961832,-229.16030534351145,-15.763358778625955,-163.76146788990826,-1009.2660550458716,0.3669724770642202,,
1760466732.548709,105,161.99795604395607,163.72997802197804,-130.6275164835165,1.9465648854961832,-224.27480916030535,-17.717557251908396,-210.73394495412842,-1032.7522935779816,0.3669724770642202,,
1760466732.5801468,106,145.5617142857143,180.2883956043956,-139.82663736263737,1.9465648854961832,-219.38931297709922,-15.763358778625955,-257.70642201834863,-1079.7247706422017,0.3669724770642202,,
1760466732.59077,107,143.75063736263738,165.5698021978022,-132.46734065934066,1.9465648854961832,-214.50381679389312,-21.625954198473284,-234.2201834862385,-1103.2110091743118,0.3669724770642202,,
1760466732.611896,108,151.0093186813187,169.24945054945056,-139.82663736263737,1.9465648854961832,-209.61832061068702,-19.671755725190838,-234.2201834862385,-1056.2385321100917,0.3669724770642202,,
1760466732.6436303,109,145.58327472527475,154.53085714285717,-145.34610989010991,1.9465648854961832,-204.73282442748092,-21.625954198473284,-257.70642201834863,-1032.7522935779816,0.3669724770642202,,
1760466732.6542218,110,165.7279120879121,165.5698021978022,-141.66646153846156,1.9465648854961832,-199.84732824427482,-15.763358778625955,-257.70642201834863,-1126.697247706422,0.3669724770642202,,
1760466732.6753364,111,156.53597802197802,161.89015384615388,-141.66646153846156,1.9465648854961832,-194.9618320610687,-15.763358778625955,-187.24770642201835,-1032.7522935779816,0.3669724770642202,,
1760466732.68598,112,152.94257142857143,171.08927472527472,-141.66646153846156,1.9465648854961832,-190.0763358778626,-17.717557251908396,-234.2201834862385,-1032.7522935779816,0.3669724770642202,,
1760466732.7069962,113,149.26292307692307,161.89015384615388,-141.66646153846156,1.9465648854961832,-185.1908396946565,-17.717557251908396,-234.2201834862385,-1056.2385321100917,0.3669724770642202,,
1760466732.7177668,114,156.53597802197802,176.60874725274726,-128.7876923076923,1.9465648854961832,-180.3053435114504,-17.717557251908396,-210.73394495412842,-1079.7247706422017,0.3669724770642202,,
1760466732.7493253,115,147.4159120879121,165.5698021978022,-132.46734065934066,1.9465648854961832,-175.4198473282443,-13.80916030534351,-210.73394495412842,-1079.7247706422017,0.3669724770642202,,
1760466732.7600121,116,160.25874725274724,165.5698021978022,-141.66646153846156,1.9465648854961832,-170.53435114503816,-17.717557251908396,-234.2201834862385,-1056.2385321100917,0.3669724770642202,,
1760466732.7811534,117,151.09556043956044,152.69103296703298,-145.34610989010991,1.9465648854961832,-165.64885496183206,-17.717557251908396,-210.73394495412842,-1079.7247706422017,0.3669724770642202,,
1760466732.8125591,118,154.8327032967033,161.89015384615388,-141.66646153846156,1.9465648854961832,-160.76335877862596,-17.717557251908396,-210.73394495412842,-1103.2110091743118,0.3669724770642202,,
1760466732.8443067,119,156.5719120879121,161.89015384615388,-134.30716483516483,1.9465648854961832,-155.87786259541986,-17.717557251908396,-234.2201834862385,-1056.2385321100917,0.3669724770642202,,
1760466732.854896,120,139.9919340659341,171.08927472527472,-137.98681318681318,1.9465648854961832,-150.99236641221373,-17.717557251908396,-163.76146788990826,-1103.2110091743118,0.3669724770642202,,
1760466732.875924,121,163.9743296703297,163.72997802197804,-136.14698901098902,1.9465648854961832,-146.10687022900763,-17.717557251908396,-234.2201834862385,-1103.2110091743118,0.3669724770642202,,
1760466732.8864717,122,145.5114065934066,156.37068131868133,-132.46734065934066,1.9465648854961832,-141.22137404580153,-15.763358778625955,-281.1926605504587,-1079.7247706422017,0.3669724770642202,,
1760466732.9074905,123,158.39017582417583,158.2105054945055,-130.6275164835165,1.9465648854961832,-136.33587786259542,-15.763358778625955,-234.2201834862385,-1056.2385321100917,0.3669724770642202,,
1760466732.9181497,124,138.13773626373626,165.5698021978022,-132.46734065934066,1.9465648854961832,-131.45038167938932,-19.671755725190838,-187.24770642201835,-1079.7247706422017,0.3669724770642202,,
1760466732.939403,125,162.17043956043958,160.05032967032966,-137.98681318681318,1.9465648854961832,-126.56488549618321,-17.717557251908396,-257.70642201834863,-1056.2385321100917,0.3669724770642202,,
1760466732.9709845,126,152.83476923076924,174.7689230769231,-123.26821978021978,1.9465648854961832,-121.6793893129771,-17.717557251908396,-187.24770642201835,-1079.7247706422017,0.3669724770642202,,
1760466732.9815812,127,147.43747252747252,165.5698021978022,-141.66646153846156,1.9465648854961832,-116.79389312977099,-19.671755725190838,-210.73394495412842,-1032.7522935779816,0.3669724770642202,,
1760466733.0027397,128,165.8285274725275,163.72997802197804,-143.50628571428572,1.9465648854961832,-111.90839694656489,-21.625954198473284,-234.2201834862385,-1056.2385321100917,0.3669724770642202,,
1760466733.0341346,129,158.39736263736265,160.05032967032966,-143.50628571428572,1.9465648854961832,-107.02290076335878,-19.671755725190838,-234.2201834862385,-1056.2385321100917,0.3669724770642202,,
1760466733.0446312,130,154.74646153846155,161.89015384615388,-143.50628571428572,1.9465648854961832,-102.13740458015268,-17.717557251908396,-234.2201834862385,-1056.2385321100917,0.3669724770642202,,
1760466733.0657547,131,151.08118681318683,171.08927472527472,-130.6275164835165,1.9465648854961832,-97.25190839694656,-19.671755725190838,-210.73394495412842,-1079.7247706422017,0.3669724770642202,,
1760466733.0763106,132,134.54432967032966,165.5698021978022,-137.98681318681318,1.9465648854961832,-92.36641221374046,-17.717557251908396,-210.73394495412842,-1079.7247706422017,0.3669724770642202,,
1760466733.0973816,133,156.55035164835166,174.7689230769231,-132.46734065934066,1.9465648854961832,-87.48091603053435,-13.80916030534351,-234.2201834862385,-1056.2385321100917,0.3669724770642202,,
1760466733.1288705,134,139.9919340659341,160.05032967032966,-139.82663736263737,1.9465648854961832,-82.59541984732824,-17.717557251908396,-257.70642201834863,-1126.697247706422,0.3669724770642202,,
1760466733.1396267,135,158.44767032967033,167.40962637362637,-139.82663736263737,1.9465648854961832,-77.70992366412214,-17.717557251908396,-210.73394495412842,-1103.2110091743118,0.3669724770642202,,
1760466733.1609745,136,0.0,149.2844835164835,152.69103296703298,-146.5648854961832,1.9465648854961832,-72.82442748091603,-212.93577981651376,-234.2201834862385,-1079.7247706422017,,
1760466733.1820712,137,-0.539010989010989,1.7320219780219783,158.497978021978,187.58778625954199,-146.5648854961832,1.9465648854961832,-816.5137614678899,-236.42201834862385,-210.73394495412842,,
1760466733.1927786,138,-0.6827472527472528,1.617032967032967,145.47547252747253,185.63358778625954,-148.51908396946564,1.9465648854961832,-757.7981651376147,-212.93577981651376,-234.2201834862385,,
1760466733.224339,139,-0.5030769230769231,1.6817142857142857,145.47547252747253,177.81679389312978,-140.70229007633588,1.9465648854961832,-699.0825688073395,-212.93577981651376,-281.1926605504587,,
1760466733.2351968,140,-0.43839560439560443,1.6817142857142857,151.0668131868132,175.86259541984734,-158.29007633587787,1.9465648854961832,-640.3669724770642,-236.42201834862385,-210.73394495412842,,
1760466733.24593,141,-0.5533846153846155,1.6529670329670332,150.98775824175826,164.13740458015266,-152.42748091603053,1.9465648854961832,-581.6513761467891,-212.93577981651376,-210.73394495412842,,
1760466733.2772057,142,-0.6324395604395605,1.5882857142857145,152.9353846153846,181.72519083969465,-142.65648854961833,1.9465648854961832,-522.9357798165138,-189.44954128440367,-187.24770642201835,,
1760466733.2878034,143,-0.574945054945055,1.7751428571428571,147.40153846153848,175.86259541984734,-144.61068702290078,1.9465648854961832,-464.22018348623857,-212.93577981651376,-140.27522935779817,,
1760466733.3088903,144,-0.5030769230769231,1.6314065934065933,154.67459340659343,177.81679389312978,-154.38167938931298,1.9465648854961832,-405.5045871559633,-189.44954128440367,-187.24770642201835,,
1760466733.3404489,145,-0.5605714285714286,1.724835164835165,147.39435164835166,179.7709923664122,-154.38167938931298,1.9465648854961832,-346.7889908256881,-212.93577981651376,-234.2201834862385,,
1760466733.3511589,146,-0.48870329670329676,1.7176483516483516,156.6725274725275,185.63358778625954,-142.65648854961833,1.9465648854961832,-288.07339449541286,-212.93577981651376,-210.73394495412842,,
1760466733.3722308,147,-0.46714285714285714,1.767956043956044,147.3656043956044,162.18320610687022,-144.61068702290078,1.9465648854961832,-229.3577981651376,-212.93577981651376,-187.24770642201835,,
1760466733.3828964,148,-0.5318241758241758,1.609846153846154,141.93237362637365,175.86259541984734,-130.93129770992365,1.9465648854961832,-170.6422018348624,-236.42201834862385,-257.70642201834863,,
1760466733.404019,149,-0.6036923076923078,1.6745274725274726,160.19406593406592,170.0,-158.29007633587787,1.9465648854961832,-111.92660550458714,-189.44954128440367,-281.1926605504587,,
1760466733.435787,150,-0.5174505494505495,1.7176483516483516,145.54015384615386,173.9083969465649,-136.793893129771,1.9465648854961832,-53.21100917431193,-259.908256880734,-187.24770642201835,,
1760466733.4464054,151,-0.5965054945054945,1.6385934065934065,152.85632967032967,171.95419847328245,-144.61068702290078,1.9465648854961832,5.5045871559633035,-212.84403669724773,-187.24770642201835,,
1760466733.4678664,152,-0.4815164835164835,1.7320219780219783,154.7105274725275,170.0,-152.42748091603053,1.9465648854961832,64.22018348623854,-212.84403669724773,-187.24770642201835,,
1760466733.4994757,153,-0.574945054945055,1.6960879120879122,152.8203956043956,164.13740458015266,-148.51908396946564,1.9465648854961832,122.93577981651376,-212.84403669724773,-210.73394495412842,,
1760466733.5101767,154,-0.6827472527472528,1.688901098901099,151.08837362637362,166.0916030534351,-136.793893129771,1.9465648854961832,181.65137614678898,-189.35779816513764,-234.2201834862385,,
1760466733.5314999,155,-0.4743296703296704,1.767956043956044,154.80395604395605,171.95419847328245,-130.93129770992365,1.9465648854961832,240.3669724770642,-165.87155963302754,-234.2201834862385,,
1760466733.56307,156,-0.43839560439560443,1.7104615384615385,154.80395604395605,187.58778625954199,-144.61068702290078,1.9465648854961832,299.08256880733944,-212.84403669724773,-187.24770642201835,,
1760466733.5736334,157,-0.5461978021978022,1.6817142857142857,156.60065934065935,168.04580152671755,-148.51908396946564,1.9465648854961832,357.79816513761466,-212.84403669724773,-187.24770642201835,,
1760466733.594958,158,-0.5533846153846155,1.7607692307692309,154.7249010989011,168.04580152671755,-156.33587786259542,1.9465648854961832,416.51376146788994,-212.84403669724773,-187.24770642201835,,
1760466733.6055622,159,-0.574945054945055,1.7535824175824177,149.2198021978022,156.3206106870229,-156.33587786259542,1.9465648854961832,475.22935779816515,-189.35779816513764,-210.73394495412842,,
1760466733.6268215,160,-0.5605714285714286,1.724835164835165,158.40454945054947,168.04580152671755,-138.74809160305344,1.9465648854961832,533.9449541284404,-212.84403669724773,-210.73394495412842,,
1760466733.6586046,161,-0.539010989010989,1.6673406593406594,147.43028571428573,175.86259541984734,-148.51908396946564,1.9465648854961832,592.6605504587156,-189.35779816513764,-234.2201834862385,,
1760466733.669344,162,-0.48870329670329676,1.6385934065934065,145.5545274725275,189.54198473282443,-144.61068702290078,1.9465648854961832,651.3761467889908,-189.35779816513764,-210.73394495412842,,
1760466733.6903582,163,-0.6683736263736263,1.6026593406593408,152.83476923076924,171.95419847328245,-152.42748091603053,1.9465648854961832,710.091743119266,-212.84403669724773,-281.1926605504587,,
1760466733.7221103,164,-0.5461978021978022,1.6817142857142857,151.0668131868132,183.6793893129771,-152.42748091603053,1.9465648854961832,768.8073394495412,-212.84403669724773,-234.2201834862385,,
1760466733.7329001,165,-0.4743296703296704,1.7320219780219783,149.1623076923077,166.0916030534351,-142.65648854961833,1.9465648854961832,827.5229357798165,-189.35779816513764,-210.73394495412842,,
1760466733.7542462,166,-0.6036923076923078,1.5523516483516484,145.5114065934066,164.13740458015266,-142.65648854961833,1.9465648854961832,886.2385321100918,-189.35779816513764,-257.70642201834863,,
1760466733.7649283,167,-0.48870329670329676,1.6242197802197802,154.81114285714287,173.9083969465649,-150.4732824427481,1.9465648854961832,944.9541284403671,-236.33027522935782,-210.73394495412842,,
1760466733.786159,168,-0.6180659340659341,1.6026593406593408,160.20125274725274,185.63358778625954,-146.5648854961832,1.9465648854961832,1003.6697247706422,-236.33027522935782,-210.73394495412842,,
1760466733.8174822,169,-0.6971208791208792,1.7392087912087915,154.70334065934068,171.95419847328245,-144.61068702290078,1.9465648854961832,1062.3853211009175,-212.84403669724773,-234.2201834862385,,
1760466733.828113,170,-0.539010989010989,1.7535824175824177,158.34705494505494,170.0,-148.51908396946564,1.9465648854961832,1121.1009174311928,-212.84403669724773,-257.70642201834863,,
1760466733.8492723,171,-0.46714285714285714,1.7176483516483516,156.58628571428574,164.13740458015266,-154.38167938931298,1.9465648854961832,1179.816513761468,-236.33027522935782,-257.70642201834863,,
1760466733.8599157,172,-0.5174505494505495,1.6745274725274726,152.88507692307692,179.7709923664122,-148.51908396946564,1.9465648854961832,1238.532110091743,-212.84403669724773,-210.73394495412842,,
1760466733.8809562,173,-0.574945054945055,1.7320219780219783,136.29072527472528,168.04580152671755,-158.29007633587787,1.9465648854961832,1297.2477064220184,-189.35779816513764,-210.73394495412842,,
1760466733.9020147,174,-0.6180659340659341,1.7535824175824177,151.2321098901099,187.58778625954199,-140.70229007633588,1.9465648854961832,1355.9633027522937,-236.33027522935782,-234.2201834862385,,
1760466733.9125965,175,-0.6180659340659341,1.5164175824175825,154.84707692307694,175.86259541984734,-142.65648854961833,1.9465648854961832,1414.6788990825687,-212.84403669724773,-187.24770642201835,,
1760466733.933821,176,-0.6611868131868132,1.7320219780219783,149.2198021978022,175.86259541984734,-152.42748091603053,1.9465648854961832,1473.394495412844,-189.35779816513764,-187.24770642201835,,
1760466733.9654987,177,-0.5677582417582419,1.7463956043956046,156.62221978021978,160.2290076335878,-146.5648854961832,1.9465648854961832,1532.1100917431193,-189.35779816513764,-210.73394495412842,,
1760466733.9761965,178,-0.41683516483516486,1.688901098901099,158.41173626373626,164.13740458015266,-142.65648854961833,1.9465648854961832,1590.8256880733943,-212.84403669724773,-257.70642201834863,,
1760466733.9974399,179,-0.4958901098901099,1.724835164835165,151.05243956043958,170.0,-152.42748091603053,1.9465648854961832,1649.5412844036696,-189.35779816513764,-234.2201834862385,,
1760466734.0081484,180,-0.4815164835164835,1.6601538461538463,152.89945054945056,189.54198473282443,-148.51908396946564,1.9465648854961832,1708.2568807339449,-212.84403669724773,-210.73394495412842,,
1760466734.0295002,181,-0.4743296703296704,1.6960879120879122,156.53597802197802,171.95419847328245,-150.4732824427481,1.9465648854961832,1766.9724770642201,-189.35779816513764,-187.24770642201835,,
1760466734.061461,182,-0.5318241758241758,1.5882857142857145,147.40872527472527,164.13740458015266,-150.4732824427481,1.9465648854961832,1825.6880733944954,-236.33027522935782,-234.2201834862385,,
1760466734.0720882,183,-0.5318241758241758,1.6601538461538463,145.5689010989011,170.0,-142.65648854961833,1.9465648854961832,1884.4036697247707,-189.35779816513764,-257.70642201834863,,
1760466734.0927582,184,-0.5174505494505495,1.7607692307692309,154.65303296703297,166.0916030534351,-140.70229007633588,1.9465648854961832,1943.1192660550457,-283.302752293578,-234.2201834862385,,
1760466734.123755,185,-0.6899340659340659,1.5810989010989014,152.91382417582417,179.7709923664122,-156.33587786259542,1.9465648854961832,2001.834862385321,-212.84403669724773,-210.73394495412842,,
1760466734.1342137,186,-0.5533846153846155,1.6242197802197802,156.56472527472528,179.7709923664122,-154.38167938931298,1.9465648854961832,2060.5504587155965,-236.33027522935782,-234.2201834862385,,
1760466734.165384,187,-0.5318241758241758,1.767956043956044,152.8635164835165,164.13740458015266,-144.61068702290078,1.9465648854961832,2119.2660550458713,-212.84403669724773,-187.24770642201835,,
1760466734.1758692,188,-0.5821318681318681,1.6817142857142857,138.13773626373626,183.6793893129771,-142.65648854961833,1.9465648854961832,2177.9816513761466,-236.33027522935782,-234.2201834862385,,
1760466734.1969962,189,-0.5677582417582419,1.6601538461538463,160.26593406593406,152.41221374045801,-144.61068702290078,1.9465648854961832,2236.697247706422,-212.84403669724773,-257.70642201834863,,
1760466734.2286305,190,-0.5318241758241758,1.7104615384615385,138.223978021978,171.95419847328245,-152.42748091603053,1.9465648854961832,2295.412844036697,-212.84403669724773,-234.2201834862385,,
1760466734.2393498,191,-0.5677582417582419,1.7032747252747253,160.25874725274724,173.9083969465649,-140.70229007633588,1.9465648854961832,2354.1284403669724,-236.33027522935782,-187.24770642201835,,
1760466734.2502704,192,-0.5030769230769231,1.6314065934065933,160.32342857142856,177.81679389312978,-148.51908396946564,1.9465648854961832,2412.8440366972477,-236.33027522935782,-187.24770642201835,,
1760466734.2818813,193,-0.44558241758241757,1.7032747252747253,162.1201318681319,185.63358778625954,-156.33587786259542,1.9465648854961832,2471.559633027523,-236.33027522935782,-210.73394495412842,,
1760466734.292529,194,-0.5965054945054945,1.724835164835165,147.3081098901099,160.2290076335878,-146.5648854961832,1.9465648854961832,2530.2752293577983,-189.35779816513764,-210.73394495412842,,
1760466734.3138547,195,-0.459956043956044,1.617032967032967,154.70334065934068,168.04580152671755,-156.33587786259542,1.9465648854961832,2588.9908256880735,-189.35779816513764,-187.24770642201835,,
1760466734.3245156,196,-0.5821318681318681,1.6960879120879122,149.14074725274725,173.9083969465649,-146.5648854961832,1.9465648854961832,2647.706422018349,-212.84403669724773,-234.2201834862385,,
1760466734.3459327,197,-0.5461978021978022,1.7176483516483516,149.23417582417582,166.0916030534351,-150.4732824427481,1.9465648854961832,2706.4220183486236,-189.35779816513764,-210.73394495412842,,
1760466734.3777528,198,-0.5318241758241758,1.5954725274725277,160.2803076923077,195.40458015267177,-150.4732824427481,1.9465648854961832,2765.137614678899,-212.84403669724773,-234.2201834862385,,
1760466734.3884962,199,-0.5965054945054945,1.6817142857142857,152.8778901098901,164.13740458015266,-148.51908396946564,1.9465648854961832,2823.853211009174,-189.35779816513764,-257.70642201834863,,
1760466734.409617,200,-0.5677582417582419,1.6745274725274726,158.49079120879122,173.9083969465649,-138.74809160305344,1.9465648854961832,2882.5688073394494,-236.33027522935782,-257.70642201834863,,
1760466734.4204738,201,-0.5965054945054945,1.6601538461538463,143.67876923076923,170.0,-142.65648854961833,1.9465648854961832,2941.2844036697247,-189.35779816513764,-187.24770642201835,,
1760466734.45206,202,-0.5821318681318681,1.724835164835165,158.43329670329672,177.81679389312978,-142.65648854961833,1.9465648854961832,3000.0,-212.84403669724773,-234.2201834862385,,
1760466734.4627845,203,-0.5246373626373626,1.5954725274725277,151.0165054945055,177.81679389312978,-136.793893129771,1.9465648854961832,-2953.761467889908,-212.84403669724773,-234.2201834862385,,
1760466734.4838924,204,-0.5821318681318681,1.6960879120879122,158.35424175824176,171.95419847328245,-148.51908396946564,1.9465648854961832,-2895.045871559633,-212.84403669724773,-234.2201834862385,,
1760466734.5154026,205,-0.6036923076923078,1.617032967032967,149.20542857142857,177.81679389312978,-152.42748091603053,1.9465648854961832,-2836.3302752293575,-236.33027522935782,-257.70642201834863,,
1760466734.526076,206,-0.6036923076923078,1.724835164835165,149.2701098901099,171.95419847328245,-150.4732824427481,1.9465648854961832,-2777.6146788990827,-212.84403669724773,-210.73394495412842,,
1760466734.5367713,207,-0.5461978021978022,1.6385934065934065,152.94975824175825,154.36641221374046,-150.4732824427481,1.9465648854961832,-2718.8990825688074,-236.33027522935782,-234.2201834862385,,
1760466734.568267,208,-0.5965054945054945,1.6673406593406594,162.10575824175828,171.95419847328245,-140.70229007633588,1.9465648854961832,-2660.183486238532,-259.8165137614679,-210.73394495412842,,
1760466734.57928,209,-0.574945054945055,1.6673406593406594,154.7752087912088,177.81679389312978,-152.42748091603053,1.9465648854961832,-2601.467889908257,-189.35779816513764,-234.2201834862385,,
1760466734.600618,210,-0.459956043956044,1.6457802197802198,151.09556043956044,177.81679389312978,-154.38167938931298,1.9465648854961832,-2542.7522935779816,-142.38532110091745,-234.2201834862385,,
1760466734.631635,211,-0.6036923076923078,1.688901098901099,132.57514285714285,177.81679389312978,-154.38167938931298,1.9465648854961832,-2484.0366972477063,-259.8165137614679,-234.2201834862385,,
1760466734.6420834,212,-0.7186813186813188,1.8110769230769233,139.86257142857144,166.0916030534351,-144.61068702290078,1.9465648854961832,-2425.321100917431,-165.87155963302754,-187.24770642201835,,
1760466734.6628387,213,-0.5605714285714286,1.7176483516483516,163.95995604395605,177.81679389312978,-156.33587786259542,1.9465648854961832,-2366.605504587156,-189.35779816513764,-234.2201834862385,,
1760466734.673303,214,-0.5605714285714286,1.7751428571428571,152.94257142857143,171.95419847328245,-142.65648854961833,1.9465648854961832,-2307.8899082568805,-236.33027522935782,-234.2201834862385,,
1760466734.7043436,215,-0.5461978021978022,1.5379780219780221,151.10274725274726,173.9083969465649,-150.4732824427481,1.9465648854961832,-2249.1743119266052,-189.35779816513764,-163.76146788990826,,
1760466734.7358768,216,-0.5965054945054945,1.6314065934065933,160.2803076923077,183.6793893129771,-140.70229007633588,1.9465648854961832,-2190.4587155963304,-212.84403669724773,-187.24770642201835,,
1760466734.7464795,217,-0.5030769230769231,1.688901098901099,151.1171208791209,175.86259541984734,-150.4732824427481,1.9465648854961832,-2131.743119266055,-212.84403669724773,-257.70642201834863,,
1760466734.7675886,218,-0.5102637362637363,1.5092307692307694,158.3758021978022,168.04580152671755,-148.51908396946564,1.9465648854961832,-2073.02752293578,-142.38532110091745,-163.76146788990826,,
1760466734.7782335,219,-0.5533846153846155,1.7463956043956046,151.00213186813187,152.41221374045801,-148.51908396946564,1.9465648854961832,-2014.3119266055046,-212.84403669724773,-281.1926605504587,,
1760466734.7993689,220,-0.6468131868131869,1.6960879120879122,158.33268131868132,171.95419847328245,-158.29007633587787,1.9465648854961832,-1955.5963302752293,-189.35779816513764,-234.2201834862385,,
1760466734.8205853,221,-0.539010989010989,1.6314065934065933,151.0093186813187,185.63358778625954,-144.61068702290078,1.9465648854961832,-1896.880733944954,-236.33027522935782,-234.2201834862385,,
1760466734.8313515,222,-0.5821318681318681,1.7176483516483516,154.81114285714287,187.58778625954199,-140.70229007633588,1.9465648854961832,-1838.1651376146788,-259.8165137614679,-210.73394495412842,,
1760466734.8630943,223,-0.6827472527472528,1.7607692307692309,152.99287912087914,175.86259541984734,-156.33587786259542,1.9465648854961832,-1779.4495412844035,-212.84403669724773,-210.73394495412842,,
1760466734.8742003,224,-0.46714285714285714,1.6673406593406594,152.94257142857143,175.86259541984734,-148.51908396946564,1.9465648854961832,-1720.7339449541284,-236.33027522935782,-187.24770642201835,,
1760466734.895294,225,-0.5102637362637363,1.6026593406593408,165.81415384615386,158.27480916030535,-138.74809160305344,1.9465648854961832,-1662.0183486238532,-212.84403669724773,-234.2201834862385,,
1760466734.9265385,226,-0.5677582417582419,1.6673406593406594,147.40872527472527,162.18320610687022,-160.24427480916032,1.9465648854961832,-1603.302752293578,-118.89908256880734,-234.2201834862385,,
1760466734.9370584,227,-0.5533846153846155,1.7104615384615385,158.4261098901099,162.18320610687022,-144.61068702290078,1.9465648854961832,-1544.5871559633028,-212.84403669724773,-257.70642201834863,,
1760466734.9581077,228,-0.5965054945054945,1.7967032967032968,162.22793406593408,189.54198473282443,-146.5648854961832,1.9465648854961832,-1485.8715596330276,-189.35779816513764,-210.73394495412842,,
1760466734.9686277,229,-0.4527692307692308,1.7607692307692309,154.768021978022,171.95419847328245,-144.61068702290078,1.9465648854961832,-1427.1559633027523,-212.84403669724773,-163.76146788990826,,
1760466734.9896922,230,-0.5318241758241758,1.6385934065934065,154.68178021978022,173.9083969465649,-154.38167938931298,1.9465648854961832,-1368.440366972477,-236.33027522935782,-257.70642201834863,,
1760466735.0212626,231,-0.6180659340659341,1.609846153846154,154.7249010989011,177.81679389312978,-146.5648854961832,1.9465648854961832,-1309.724770642202,-189.35779816513764,-234.2201834862385,,
1760466735.031792,232,-0.3593406593406594,1.617032967032967,160.2371868131868,173.9083969465649,-146.5648854961832,1.9465648854961832,-1251.0091743119267,-189.35779816513764,-210.73394495412842,,
1760466735.052775,233,-0.4815164835164835,1.6385934065934065,145.47547252747253,177.81679389312978,-158.29007633587787,1.9465648854961832,-1192.2935779816514,-236.33027522935782,-234.2201834862385,,
1760466735.0843084,234,-0.5533846153846155,1.767956043956044,162.13450549450553,185.63358778625954,-156.33587786259542,1.9465648854961832,-1133.5779816513761,-212.84403669724773,-257.70642201834863,,
1760466735.0949159,235,1.3439340659340662,0.0071868131868131875,141.87487912087914,162.18320610687022,-144.61068702290078,1.9465648854961832,-1074.8623853211009,-189.35779816513764,-281.1926605504587,,
1760466735.1162379,236,-0.5318241758241758,1.7967032967032968,152.89945054945056,173.9083969465649,-156.33587786259542,1.9465648854961832,-1016.1467889908257,-236.33027522935782,-234.2201834862385,,
1760466735.1270459,237,-0.4743296703296704,1.7392087912087915,160.2371868131868,170.0,-152.42748091603053,1.9465648854961832,-957.4311926605506,-189.35779816513764,-187.24770642201835,,
1760466735.148393,238,-0.5965054945054945,1.7104615384615385,147.40153846153848,175.86259541984734,-136.793893129771,1.9465648854961832,-898.7155963302753,-236.33027522935782,-210.73394495412842,,
1760466735.1809013,239,-0.6180659340659341,1.6960879120879122,134.48683516483516,175.86259541984734,-144.61068702290078,1.9465648854961832,-840.0,-259.8165137614679,-234.2201834862385,,
1760466735.191291,240,-0.5605714285714286,1.6026593406593408,164.03901098901102,171.95419847328245,-136.793893129771,1.9465648854961832,-781.2844036697248,-212.84403669724773,-210.73394495412842,,
1760466735.2019298,241,-0.48870329670329676,1.7895164835164834,152.95694505494507,173.9083969465649,-148.51908396946564,1.9465648854961832,-722.5688073394496,-212.84403669724773,-257.70642201834863,,
1760466735.2331781,242,-0.5102637362637363,1.5236043956043956,150.99494505494508,171.95419847328245,-142.65648854961833,1.9465648854961832,-663.8532110091743,-189.35779816513764,-210.73394495412842,,
1760466735.2435617,243,-0.6468131868131869,1.609846153846154,160.25156043956045,166.0916030534351,-136.793893129771,1.9465648854961832,-605.1376146788991,-236.33027522935782,-257.70642201834863,,
1760466735.2648246,244,-0.5246373626373626,1.7823296703296703,160.40967032967032,175.86259541984734,-156.33587786259542,1.9465648854961832,-546.4220183486239,-236.33027522935782,-234.2201834862385,,
1760466735.2752297,245,1.2576923076923077,0.0071868131868131875,152.8778901098901,177.81679389312978,-152.42748091603053,1.9465648854961832,-487.70642201834863,-189.35779816513764,-210.73394495412842,,
1760466735.3064115,246,-0.5821318681318681,1.767956043956044,145.58327472527475,185.63358778625954,-154.38167938931298,1.9465648854961832,-428.9908256880734,-212.84403669724773,-210.73394495412842,,
1760466735.3392634,247,-0.5605714285714286,1.688901098901099,154.76083516483519,168.04580152671755,-148.51908396946564,1.9465648854961832,-370.2752293577982,-189.35779816513764,-257.70642201834863,,
1760466735.3496811,248,-0.6036923076923078,1.7104615384615385,163.98151648351651,168.04580152671755,-146.5648854961832,1.9465648854961832,-311.5596330275229,-189.35779816513764,-210.73394495412842,,
1760466735.3705158,249,-0.5893186813186814,1.767956043956044,154.84707692307694,173.9083969465649,-144.61068702290078,1.9465648854961832,-252.8440366972477,-212.84403669724773,-257.70642201834863,,
1760466735.4018335,250,-0.6468131868131869,1.6457802197802198,167.5892967032967,173.9083969465649,-156.33587786259542,1.9465648854961832,-194.12844036697248,-212.84403669724773,-187.24770642201835,,
1760466735.4124625,251,-0.5102637362637363,1.5810989010989014,147.4230989010989,168.04580152671755,-146.5648854961832,1.9465648854961832,-135.41284403669724,-236.33027522935782,-210.73394495412842,,
1760466735.433377,252,-0.5533846153846155,1.6960879120879122,158.39017582417583,179.7709923664122,-134.83969465648855,1.9465648854961832,-76.69724770642202,-259.8165137614679,-234.2201834862385,,
1760466735.4643579,253,-0.5461978021978022,1.6601538461538463,138.13773626373626,195.40458015267177,-148.51908396946564,1.9465648854961832,-17.98165137614679,-212.84403669724773,-187.24770642201835,,
1760466735.4748816,254,-0.4815164835164835,1.6601538461538463,147.2578021978022,173.9083969465649,-132.8854961832061,1.9465648854961832,40.73394495412844,-236.23853211009177,-234.2201834862385,,
1760466735.4960794,255,-0.43839560439560443,1.6673406593406594,156.50723076923077,179.7709923664122,-138.74809160305344,1.9465648854961832,99.44954128440368,-212.75229357798167,-234.2201834862385,,
1760466735.5066292,256,-0.5246373626373626,1.6673406593406594,149.23417582417582,173.9083969465649,-138.74809160305344,1.9465648854961832,158.16513761467888,-189.26605504587155,-187.24770642201835,,
1760466735.527696,257,-0.5677582417582419,1.6745274725274726,147.4159120879121,162.18320610687022,-144.61068702290078,1.9465648854961832,216.8807339449541,-189.26605504587155,-187.24770642201835,,
1760466735.5380936,258,-0.5318241758241758,1.688901098901099,145.5114065934066,171.95419847328245,-150.4732824427481,1.9465648854961832,275.5963302752293,-259.72477064220186,-257.70642201834863,,
1760466735.5589137,259,-0.4096483516483516,1.6745274725274726,158.36142857142858,166.0916030534351,-150.4732824427481,1.9465648854961832,334.3119266055046,-189.26605504587155,-234.2201834862385,,
1760466735.590432,260,-0.5030769230769231,1.7104615384615385,162.09138461538464,175.86259541984734,-144.61068702290078,1.9465648854961832,393.0275229357798,-236.23853211009177,-187.24770642201835,,
1760466735.600782,261,-0.539010989010989,1.6960879120879122,156.65096703296703,168.04580152671755,-148.51908396946564,1.9465648854961832,451.7431192660551,-212.75229357798167,-234.2201834862385,,
1760466735.6111622,262,-0.6324395604395605,1.6745274725274726,154.80395604395605,173.9083969465649,-150.4732824427481,1.9465648854961832,510.4587155963303,-189.26605504587155,-234.2201834862385,,
1760466735.6424942,263,-0.5677582417582419,1.6601538461538463,152.90663736263735,171.95419847328245,-146.5648854961832,1.9465648854961832,569.1743119266056,-236.23853211009177,-210.73394495412842,,
1760466735.6529357,264,-0.5965054945054945,1.724835164835165,158.4261098901099,177.81679389312978,-146.5648854961832,1.9465648854961832,627.8899082568807,-189.26605504587155,-210.73394495412842,,
1760466735.6840072,265,-0.43839560439560443,1.7176483516483516,151.10993406593408,177.81679389312978,-150.4732824427481,1.9465648854961832,686.6055045871559,-189.26605504587155,-234.2201834862385,,
1760466735.6943545,266,-0.5246373626373626,1.7032747252747253,152.94257142857143,177.81679389312978,-148.51908396946564,1.9465648854961832,745.3211009174312,-259.72477064220186,-210.73394495412842,,
1760466735.7150805,267,-0.5893186813186814,1.609846153846154,138.21679120879122,168.04580152671755,-144.61068702290078,1.9465648854961832,804.0366972477065,-212.75229357798167,-234.2201834862385,,
1760466735.746384,268,-0.6108791208791209,1.6817142857142857,147.38716483516484,175.86259541984734,-150.4732824427481,1.9465648854961832,862.7522935779817,-236.23853211009177,-210.73394495412842,,
1760466735.7568824,269,-0.5102637362637363,1.688901098901099,156.55753846153848,154.36641221374046,-148.51908396946564,1.9465648854961832,921.4678899082569,-212.75229357798167,-187.24770642201835,,
1760466735.7777047,270,-0.5893186813186814,1.7104615384615385,154.78239560439562,170.0,-142.65648854961833,1.9465648854961832,980.1834862385322,-212.75229357798167,-210.73394495412842,,
1760466735.8087895,271,-0.6036923076923078,1.6385934065934065,141.88206593406593,191.49618320610688,-134.83969465648855,1.9465648854961832,1038.8990825688074,-189.26605504587155,-234.2201834862385,,
1760466735.8191931,272,-0.5893186813186814,1.7392087912087915,156.55035164835166,181.72519083969465,-142.65648854961833,1.9465648854961832,1097.6146788990827,-189.26605504587155,-234.2201834862385,,
1760466735.8400304,273,1.3798681318681318,0.07186813186813187,152.8707032967033,171.95419847328245,-146.5648854961832,1.9465648854961832,1156.3302752293578,-212.75229357798167,-281.1926605504587,,
1760466735.850469,274,-0.5318241758241758,1.6026593406593408,136.44883516483517,170.0,-150.4732824427481,1.9465648854961832,1215.045871559633,-212.75229357798167,-257.70642201834863,,
1760466735.8712935,275,-0.539010989010989,1.7104615384615385,154.68896703296704,166.0916030534351,-144.61068702290078,1.9465648854961832,1273.7614678899083,-212.75229357798167,-210.73394495412842,,
1760466735.9024699,276,-0.5533846153846155,1.7320219780219783,156.50004395604395,170.0,-148.51908396946564,1.9465648854961832,1332.4770642201836,-236.23853211009177,-210.73394495412842,,
1760466735.9130194,277,-0.6108791208791209,1.7607692307692309,141.9754945054945,173.9083969465649,-138.74809160305344,1.9465648854961832,1391.1926605504589,-189.26605504587155,-187.24770642201835,,
1760466735.9339473,278,-0.6611868131868132,1.7104615384615385,158.3686153846154,185.63358778625954,-150.4732824427481,1.9465648854961832,1449.908256880734,-212.75229357798167,-210.73394495412842,,
1760466735.9443893,279,-0.539010989010989,1.609846153846154,156.54316483516484,164.13740458015266,-148.51908396946564,1.9465648854961832,1508.6238532110092,-212.75229357798167,-210.73394495412842,,
1760466735.965424,280,-0.4815164835164835,1.7463956043956046,160.26593406593406,164.13740458015266,-146.5648854961832,1.9465648854961832,1567.3394495412842,-259.72477064220186,-234.2201834862385,,
1760466735.9967444,281,-0.5677582417582419,1.688901098901099,150.99494505494508,158.27480916030535,-144.61068702290078,1.9465648854961832,1626.0550458715595,-236.23853211009177,-210.73394495412842,,
1760466736.0282164,282,-0.5246373626373626,1.724835164835165,167.6324175824176,179.7709923664122,-140.70229007633588,1.9465648854961832,1684.7706422018348,-212.75229357798167,-234.2201834862385,,
1760466736.0388234,283,-0.6468131868131869,1.6457802197802198,149.2198021978022,173.9083969465649,-136.793893129771,1.9465648854961832,1743.48623853211,-212.75229357798167,-234.2201834862385,,
1760466736.0597508,284,-0.5533846153846155,1.6601538461538463,156.50004395604395,187.58778625954199,-148.51908396946564,1.9465648854961832,1802.2018348623853,-236.23853211009177,-234.2201834862385,,
1760466736.0703714,285,-0.4743296703296704,1.5164175824175825,158.382989010989,177.81679389312978,-150.4732824427481,1.9465648854961832,1860.9174311926604,-212.75229357798167,-257.70642201834863,,
1760466736.0915859,286,-0.5893186813186814,1.7104615384615385,161.962021978022,166.0916030534351,-144.61068702290078,1.9465648854961832,1919.6330275229357,-212.75229357798167,-234.2201834862385,,
1760466736.1019623,287,-0.4527692307692308,1.7320219780219783,152.92819780219781,164.13740458015266,-146.5648854961832,1.9465648854961832,1978.348623853211,-189.26605504587155,-210.73394495412842,,
1760466736.1226919,288,1.3654945054945056,0.0071868131868131875,143.6140879120879,166.0916030534351,-138.74809160305344,1.9465648854961832,2037.0642201834862,-212.75229357798167,-210.73394495412842,,
1760466736.1540563,289,-0.6827472527472528,1.7176483516483516,139.98474725274727,175.86259541984734,-142.65648854961833,1.9465648854961832,2095.7798165137615,-236.23853211009177,-210.73394495412842,,
1760466736.1645954,290,-0.5893186813186814,1.6457802197802198,145.57608791208793,179.7709923664122,-140.70229007633588,1.9465648854961832,2154.4954128440368,-236.23853211009177,-187.24770642201835,,
1760466736.185763,291,-0.5605714285714286,1.6673406593406594,152.921010989011,166.0916030534351,-138.74809160305344,1.9465648854961832,2213.211009174312,-212.75229357798167,-210.73394495412842,,
1760466736.1964202,292,-0.48870329670329676,1.6673406593406594,152.92819780219781,177.81679389312978,-142.65648854961833,1.9465648854961832,2271.9266055045873,-212.75229357798167,-187.24770642201835,,
1760466736.22809,293,-0.5174505494505495,1.7607692307692309,154.73927472527475,166.0916030534351,-138.74809160305344,1.9465648854961832,2330.642201834862,-165.77981651376146,-210.73394495412842,,
1760466736.2596145,294,-0.6108791208791209,1.5667252747252747,169.52254945054946,170.0,-136.793893129771,1.9465648854961832,2389.3577981651374,-212.75229357798167,-234.2201834862385,,
1760466736.2702613,295,-0.4958901098901099,1.6745274725274726,141.918,170.0,-140.70229007633588,1.9465648854961832,2448.0733944954127,-259.72477064220186,-163.76146788990826,,
1760466736.2810478,296,-0.5174505494505495,1.5882857142857145,152.92819780219781,183.6793893129771,-148.51908396946564,1.9465648854961832,2506.788990825688,-212.75229357798167,-234.2201834862385,,
1760466736.29183,297,-0.5102637362637363,1.7176483516483516,141.88925274725275,179.7709923664122,-138.74809160305344,1.9465648854961832,2565.5045871559632,-212.75229357798167,-210.73394495412842,,
1760466736.3233414,298,-0.5533846153846155,1.7463956043956046,154.8183296703297,181.72519083969465,-148.51908396946564,1.9465648854961832,2624.2201834862385,-165.77981651376146,-210.73394495412842,,
1760466736.3339174,299,-0.6252527472527473,1.7751428571428571,139.9488131868132,160.2290076335878,-142.65648854961833,1.9465648854961832,2682.935779816514,-212.75229357798167,-257.70642201834863,,
1760466736.3550992,300,-0.6611868131868132,1.7032747252747253,156.55753846153848,170.0,-150.4732824427481,1.9465648854961832,2741.651376146789,-259.72477064220186,-257.70642201834863,,
1760466736.3867993,301,-0.5533846153846155,1.7320219780219783,165.72072527472528,177.81679389312978,-138.74809160305344,1.9465648854961832,2800.3669724770643,-212.75229357798167,-210.73394495412842,,
1760466736.397453,302,-0.6396263736263736,1.7032747252747253,145.52578021978024,173.9083969465649,-148.51908396946564,1.9465648854961832,2859.0825688073396,-259.72477064220186,-234.2201834862385,,
1760466736.418733,303,-0.4958901098901099,1.6601538461538463,152.9641318681319,164.13740458015266,-140.70229007633588,1.9465648854961832,2917.798165137615,-212.75229357798167,-210.73394495412842,,
1760466736.4503126,304,-0.6468131868131869,1.6817142857142857,151.08118681318683,168.04580152671755,-142.65648854961833,1.9465648854961832,2976.5137614678897,-236.23853211009177,-187.24770642201835,,
1760466736.4609704,305,-0.4743296703296704,1.6601538461538463,162.03389010989014,164.13740458015266,-146.5648854961832,1.9465648854961832,-2977.2477064220184,-189.26605504587155,-163.76146788990826,,
1760466736.4822843,306,-0.5461978021978022,1.7823296703296703,147.32248351648352,168.04580152671755,-146.5648854961832,1.9465648854961832,-2918.532110091743,-189.26605504587155,-210.73394495412842,,
1760466736.5138934,307,-0.5893186813186814,1.7320219780219783,138.23835164835165,179.7709923664122,-148.51908396946564,1.9465648854961832,-2859.816513761468,-212.75229357798167,-234.2201834862385,,
1760466736.524573,308,-0.6036923076923078,1.6960879120879122,152.8707032967033,189.54198473282443,-144.61068702290078,1.9465648854961832,-2801.1009174311926,-212.75229357798167,-187.24770642201835,,
1760466736.5458052,309,-0.5677582417582419,1.6817142857142857,152.921010989011,164.13740458015266,-136.793893129771,1.9465648854961832,-2742.3853211009173,-236.23853211009177,-234.2201834862385,,
1760466736.556429,310,-0.6971208791208792,1.6960879120879122,154.69615384615386,171.95419847328245,-154.38167938931298,1.9465648854961832,-2683.669724770642,-189.26605504587155,-257.70642201834863,,
1760466736.5671883,311,-0.6755604395604397,1.7751428571428571,154.78239560439562,164.13740458015266,-148.51908396946564,1.9465648854961832,-2624.9541284403667,-212.75229357798167,-210.73394495412842,,
1760466736.598857,312,-0.5677582417582419,1.7751428571428571,162.19200000000004,177.81679389312978,-150.4732824427481,1.9465648854961832,-2566.238532110092,-236.23853211009177,-210.73394495412842,,
1760466736.6095834,313,-0.5318241758241758,1.6457802197802198,143.65002197802198,168.04580152671755,-142.65648854961833,1.9465648854961832,-2507.5229357798166,-212.75229357798167,-234.2201834862385,,
1760466736.6309812,314,-0.4743296703296704,1.688901098901099,158.54828571428573,187.58778625954199,-142.65648854961833,1.9465648854961832,-2448.8073394495414,-189.26605504587155,-257.70642201834863,,
1760466736.6417482,315,-0.5605714285714286,1.5882857142857145,156.56472527472528,175.86259541984734,-152.42748091603053,1.9465648854961832,-2390.091743119266,-212.75229357798167,-281.1926605504587,,
1760466736.6733837,316,-0.5965054945054945,1.767956043956044,149.24854945054946,162.18320610687022,-148.51908396946564,1.9465648854961832,-2331.376146788991,-212.75229357798167,-234.2201834862385,,
1760466736.7050734,317,-0.5677582417582419,1.617032967032967,154.7105274725275,158.27480916030535,-140.70229007633588,1.9465648854961832,-2272.6605504587155,-189.26605504587155,-234.2201834862385,,
1760466736.715692,318,-0.4958901098901099,1.7176483516483516,158.382989010989,179.7709923664122,-140.70229007633588,1.9465648854961832,-2213.9449541284403,-189.26605504587155,-210.73394495412842,,
1760466736.7368355,319,-0.5461978021978022,1.6314065934065933,154.7249010989011,170.0,-136.793893129771,1.9465648854961832,-2155.229357798165,-236.23853211009177,-163.76146788990826,,
1760466736.7475047,320,-0.5821318681318681,1.7104615384615385,143.65002197802198,191.49618320610688,-142.65648854961833,1.9465648854961832,-2096.5137614678897,-236.23853211009177,-187.24770642201835,,
1760466736.7685418,321,-0.6755604395604397,1.6314065934065933,152.92819780219781,173.9083969465649,-140.70229007633588,1.9465648854961832,-2037.7981651376147,-236.23853211009177,-234.2201834862385,,
1760466736.800156,322,-0.6468131868131869,1.6601538461538463,161.94764835164838,166.0916030534351,-152.42748091603053,1.9465648854961832,-1979.0825688073394,-189.26605504587155,-257.70642201834863,,
1760466736.8107653,323,-0.7043076923076923,1.6673406593406594,147.4159120879121,168.04580152671755,-154.38167938931298,1.9465648854961832,-1920.366972477064,-189.26605504587155,-304.6788990825688,,
1760466736.8319545,324,-0.5677582417582419,1.7320219780219783,165.76384615384617,175.86259541984734,-144.61068702290078,1.9465648854961832,-1861.6513761467888,-212.75229357798167,-257.70642201834863,,
1760466736.8635354,325,-0.5174505494505495,1.7032747252747253,152.98569230769232,193.45038167938932,-150.4732824427481,1.9465648854961832,-1802.9357798165138,-212.75229357798167,-234.2201834862385,,
1760466736.874263,326,-0.5318241758241758,1.6529670329670332,161.98358241758245,173.9083969465649,-144.61068702290078,1.9465648854961832,-1744.2201834862385,-189.26605504587155,-210.73394495412842,,
1760466736.8956337,327,-0.4958901098901099,1.6601538461538463,152.9353846153846,164.13740458015266,-154.38167938931298,1.9465648854961832,-1685.5045871559632,-142.2935779816514,-140.27522935779817,,
1760466736.9064546,328,-0.5461978021978022,1.6242197802197802,165.86446153846154,171.95419847328245,-150.4732824427481,1.9465648854961832,-1626.788990825688,-212.75229357798167,-163.76146788990826,,
1760466736.9279428,329,-0.4096483516483516,1.6601538461538463,152.94975824175825,156.3206106870229,-144.61068702290078,1.9465648854961832,-1568.073394495413,-259.72477064220186,-234.2201834862385,,
1760466736.9492693,330,-0.5246373626373626,1.6026593406593408,154.68896703296704,166.0916030534351,-140.70229007633588,1.9465648854961832,-1509.3577981651376,-212.75229357798167,-257.70642201834863,,
1760466736.9599075,331,-0.6324395604395605,1.7823296703296703,153.00725274725275,173.9083969465649,-142.65648854961833,1.9465648854961832,-1450.6422018348624,-189.26605504587155,-257.70642201834863,,
1760466736.9812453,332,-0.459956043956044,1.5810989010989014,156.5719120879121,177.81679389312978,-140.70229007633588,1.9465648854961832,-1391.9266055045873,-189.26605504587155,-257.70642201834863,,
1760466737.012858,333,-0.5318241758241758,1.617032967032967,134.40778021978022,162.18320610687022,-138.74809160305344,1.9465648854961832,-1333.211009174312,-189.26605504587155,-257.70642201834863,,
1760466737.023593,334,-0.4527692307692308,1.724835164835165,156.5719120879121,168.04580152671755,-150.4732824427481,1.9465648854961832,-1274.4954128440368,-212.75229357798167,-257.70642201834863,,
1760466737.0450013,335,-0.5821318681318681,1.7032747252747253,165.71353846153846,168.04580152671755,-150.4732824427481,1.9465648854961832,-1215.7798165137615,-189.26605504587155,-187.24770642201835,,
1760466737.0559924,336,-0.3377802197802198,1.6026593406593408,151.0093186813187,171.95419847328245,-146.5648854961832,1.9465648854961832,-1157.0642201834862,-259.72477064220186,-234.2201834862385,,
1760466737.0772307,337,-0.6252527472527473,1.6457802197802198,154.74646153846155,173.9083969465649,-136.793893129771,1.9465648854961832,-1098.3486238532112,-212.75229357798167,-210.73394495412842,,
1760466737.1090026,338,-0.5246373626373626,1.688901098901099,138.18804395604397,181.72519083969465,-144.61068702290078,1.9465648854961832,-1039.633027522936,-212.75229357798167,-257.70642201834863,,
1760466737.1198366,339,-0.459956043956044,1.7032747252747253,147.40872527472527,164.13740458015266,-142.65648854961833,1.9465648854961832,-980.9174311926606,-236.23853211009177,-257.70642201834863,,
1760466737.141127,340,-0.5533846153846155,1.6745274725274726,160.20843956043956,171.95419847328245,-144.61068702290078,1.9465648854961832,-922.2018348623853,-236.23853211009177,-234.2201834862385,,
1760466737.151999,341,-0.46714285714285714,1.7176483516483516,136.32665934065935,156.3206106870229,-154.38167938931298,1.9465648854961832,-863.4862385321102,-236.23853211009177,-163.76146788990826,,
1760466737.1838338,342,-0.5461978021978022,1.6026593406593408,160.22281318681317,181.72519083969465,-138.74809160305344,1.9465648854961832,-804.7706422018349,-212.75229357798167,-210.73394495412842,,
1760466737.2050436,343,-0.5318241758241758,1.6673406593406594,156.55753846153848,189.54198473282443,-142.65648854961833,1.9465648854961832,-746.0550458715596,-189.26605504587155,-187.24770642201835,,
1760466737.2156038,344,-0.6755604395604397,1.7320219780219783,163.82340659340662,179.7709923664122,-146.5648854961832,1.9465648854961832,-687.3394495412845,-189.26605504587155,-257.70642201834863,,
1760466737.2367065,345,-0.6180659340659341,1.7320219780219783,165.77103296703297,162.18320610687022,-146.5648854961832,1.9465648854961832,-628.6238532110092,-236.23853211009177,-281.1926605504587,,
1760466737.2683046,346,-0.539010989010989,1.6457802197802198,145.63358241758243,164.13740458015266,-142.65648854961833,1.9465648854961832,-569.9082568807339,-236.23853211009177,-210.73394495412842,,
1760466737.278922,347,-0.6108791208791209,1.7176483516483516,158.51953846153847,177.81679389312978,-142.65648854961833,1.9465648854961832,-511.19266055045875,-189.26605504587155,-257.70642201834863,,
1760466737.3002715,348,-0.6468131868131869,1.7104615384615385,149.1694945054945,177.81679389312978,-150.4732824427481,1.9465648854961832,-452.4770642201835,-165.77981651376146,-234.2201834862385,,
1760466737.331926,349,-0.4815164835164835,1.7032747252747253,160.21562637362638,185.63358778625954,-148.51908396946564,1.9465648854961832,-393.76146788990826,-212.75229357798167,-187.24770642201835,,
1760466737.3425303,350,-0.5174505494505495,1.5882857142857145,158.49079120879122,175.86259541984734,-144.61068702290078,1.9465648854961832,-335.04587155963304,-212.75229357798167,-234.2201834862385,,
1760466737.3637154,351,-0.5318241758241758,1.6817142857142857,158.44767032967033,166.0916030534351,-152.42748091603053,1.9465648854961832,-276.3302752293578,-212.75229357798167,-210.73394495412842,,
1760466737.3744402,352,-0.5893186813186814,1.688901098901099,154.70334065934068,166.0916030534351,-142.65648854961833,1.9465648854961832,-217.61467889908258,-236.23853211009177,-257.70642201834863,,
1760466737.3955882,353,-0.4815164835164835,1.6242197802197802,149.14074725274725,166.0916030534351,-160.24427480916032,1.9465648854961832,-158.89908256880733,-212.75229357798167,-257.70642201834863,,
1760466737.4271984,354,-0.5461978021978022,1.6529670329670332,149.1623076923077,175.86259541984734,-138.74809160305344,1.9465648854961832,-100.18348623853211,-212.75229357798167,-257.70642201834863,,
1760466737.4379272,355,-0.5102637362637363,1.6457802197802198,151.0668131868132,173.9083969465649,-146.5648854961832,1.9465648854961832,-41.467889908256886,-236.23853211009177,-210.73394495412842,,
1760466737.4590323,356,-0.6108791208791209,1.6960879120879122,156.53597802197802,181.72519083969465,-150.4732824427481,1.9465648854961832,17.24770642201835,-236.1467889908257,-257.70642201834863,,
1760466737.4698374,357,-0.539010989010989,1.6601538461538463,149.2701098901099,168.04580152671755,-146.5648854961832,1.9465648854961832,75.96330275229359,-189.1743119266055,-234.2201834862385,,
1760466737.4910388,358,-0.539010989010989,1.767956043956044,154.67459340659343,177.81679389312978,-144.61068702290078,1.9465648854961832,134.6788990825688,-236.1467889908257,-210.73394495412842,,
1760466737.5226958,359,-0.5677582417582419,1.6529670329670332,139.97756043956045,162.18320610687022,-148.51908396946564,1.9465648854961832,193.39449541284404,-236.1467889908257,-234.2201834862385,,
1760466737.5333476,360,-0.5533846153846155,1.6601538461538463,158.46204395604397,173.9083969465649,-148.51908396946564,1.9465648854961832,252.11009174311926,-212.66055045871562,-234.2201834862385,,
1760466737.5546978,361,-0.5821318681318681,1.6960879120879122,162.09857142857146,185.63358778625954,-142.65648854961833,1.9465648854961832,310.8256880733945,-212.66055045871562,-234.2201834862385,,
1760466737.5861611,362,-0.5174505494505495,1.5954725274725277,143.7147032967033,181.72519083969465,-162.19847328244273,1.9465648854961832,369.5412844036697,-189.1743119266055,-234.2201834862385,,
1760466737.5968044,363,-0.5677582417582419,1.6745274725274726,156.62221978021978,175.86259541984734,-140.70229007633588,1.9465648854961832,428.25688073394497,-212.66055045871562,-257.70642201834863,,
1760466737.6075537,364,-0.539010989010989,1.573912087912088,147.29373626373626,152.41221374045801,-156.33587786259542,1.9465648854961832,486.97247706422024,-212.66055045871562,-163.76146788990826,,
1760466737.6183329,365,-0.5030769230769231,1.7607692307692309,151.1746153846154,162.18320610687022,-150.4732824427481,1.9465648854961832,545.6880733944954,-259.6330275229358,-163.76146788990826,,
1760466737.6499732,366,-0.5893186813186814,1.6673406593406594,160.25874725274724,175.86259541984734,-140.70229007633588,1.9465648854961832,604.4036697247706,-212.66055045871562,-234.2201834862385,,
1760466737.6817708,367,-0.5821318681318681,1.7392087912087915,154.768021978022,189.54198473282443,-152.42748091603053,1.9465648854961832,663.1192660550458,-212.66055045871562,-257.70642201834863,,
1760466737.6923614,368,-0.5677582417582419,1.7967032967032968,165.69916483516485,171.95419847328245,-148.51908396946564,1.9465648854961832,721.8348623853211,-212.66055045871562,-234.2201834862385,,
1760466737.7135637,369,-0.5318241758241758,1.6242197802197802,147.3584175824176,175.86259541984734,-152.42748091603053,1.9465648854961832,780.5504587155963,-212.66055045871562,-234.2201834862385,,
1760466737.72429,370,-0.4096483516483516,1.7320219780219783,156.50723076923077,170.0,-158.29007633587787,1.9465648854961832,839.2660550458717,-189.1743119266055,-187.24770642201835,,
1760466737.7455268,371,-0.5605714285714286,1.7176483516483516,145.612021978022,160.2290076335878,-148.51908396946564,1.9465648854961832,897.9816513761468,-212.66055045871562,-257.70642201834863,,
1760466737.7772477,372,-0.5893186813186814,1.6817142857142857,156.58628571428574,175.86259541984734,-142.65648854961833,1.9465648854961832,956.6972477064221,-212.66055045871562,-187.24770642201835,,
1760466737.7877333,373,-0.5318241758241758,1.6026593406593408,163.92402197802198,183.6793893129771,-142.65648854961833,1.9465648854961832,1015.4128440366973,-212.66055045871562,-187.24770642201835,,
1760466737.8087857,374,-0.574945054945055,1.6026593406593408,140.02068131868134,187.58778625954199,-148.51908396946564,1.9465648854961832,1074.1284403669727,-212.66055045871562,-210.73394495412842,,
1760466737.8195019,375,-0.5174505494505495,1.6457802197802198,163.9312087912088,170.0,-152.42748091603053,1.9465648854961832,1132.8440366972477,-189.1743119266055,-234.2201834862385,,
1760466737.8407068,376,-0.5821318681318681,1.688901098901099,149.2772967032967,166.0916030534351,-142.65648854961833,1.9465648854961832,1191.559633027523,-189.1743119266055,-210.73394495412842,,
1760466737.8723276,377,-0.5318241758241758,1.609846153846154,158.39017582417583,164.13740458015266,-146.5648854961832,1.9465648854961832,1250.2752293577983,-259.6330275229358,-257.70642201834863,,
1760466737.8831048,378,-0.46714285714285714,1.7607692307692309,147.35123076923077,179.7709923664122,-146.5648854961832,1.9465648854961832,1308.9908256880735,-189.1743119266055,-210.73394495412842,,
1760466737.9147875,379,-0.5821318681318681,1.7967032967032968,156.55035164835166,185.63358778625954,-152.42748091603053,1.9465648854961832,1367.7064220183488,-212.66055045871562,-187.24770642201835,,
1760466737.925576,380,-0.5174505494505495,1.6314065934065933,154.64584615384618,173.9083969465649,-152.42748091603053,1.9465648854961832,1426.4220183486239,-189.1743119266055,-187.24770642201835,,
1760466737.9469407,381,-0.5893186813186814,1.6960879120879122,158.34705494505494,166.0916030534351,-154.38167938931298,1.9465648854961832,1485.137614678899,-189.1743119266055,-210.73394495412842,,
1760466737.9787066,382,-0.5677582417582419,1.6673406593406594,156.58628571428574,160.2290076335878,-144.61068702290078,1.9465648854961832,1543.8532110091742,-189.1743119266055,-210.73394495412842,,
1760466737.989477,383,-0.4527692307692308,1.617032967032967,151.05962637362637,170.0,-146.5648854961832,1.9465648854961832,1602.5688073394494,-189.1743119266055,-234.2201834862385,,
1760466738.0106406,384,-0.44558241758241757,1.7104615384615385,154.76083516483519,170.0,-146.5648854961832,1.9465648854961832,1661.2844036697247,-212.66055045871562,-234.2201834862385,,
1760466738.02134,385,-0.5965054945054945,1.7032747252747253,154.86145054945055,160.2290076335878,-148.51908396946564,1.9465648854961832,1720.0,-212.66055045871562,-257.70642201834863,,
1760466738.0320704,386,-0.5533846153846155,1.7032747252747253,156.70127472527474,177.81679389312978,-146.5648854961832,1.9465648854961832,1778.7155963302753,-189.1743119266055,-163.76146788990826,,
1760466738.0636747,387,-0.48870329670329676,1.767956043956044,156.58628571428574,185.63358778625954,-142.65648854961833,1.9465648854961832,1837.4311926605503,-212.66055045871562,-257.70642201834863,,
1760466738.0743635,388,-0.5965054945054945,1.767956043956044,152.89226373626374,193.45038167938932,-146.5648854961832,1.9465648854961832,1896.1467889908256,-212.66055045871562,-304.6788990825688,,
1760466738.0955145,389,-0.5893186813186814,1.767956043956044,151.04525274725276,173.9083969465649,-148.51908396946564,1.9465648854961832,1954.8623853211009,-212.66055045871562,-234.2201834862385,,
1760466738.127126,390,-0.5533846153846155,1.6601538461538463,149.2844835164835,173.9083969465649,-146.5648854961832,1.9465648854961832,2013.5779816513761,-212.66055045871562,-210.73394495412842,,
1760466738.1378365,391,-0.6180659340659341,1.6457802197802198,151.1746153846154,158.27480916030535,-144.61068702290078,1.9465648854961832,2072.293577981651,-212.66055045871562,-234.2201834862385,,
1760466738.159036,392,-0.5174505494505495,1.7176483516483516,158.34705494505494,168.04580152671755,-146.5648854961832,1.9465648854961832,2131.0091743119265,-189.1743119266055,-234.2201834862385,,
1760466738.1698968,393,-0.6611868131868132,1.5954725274725277,154.78239560439562,173.9083969465649,-150.4732824427481,1.9465648854961832,2189.7247706422017,-189.1743119266055,-234.2201834862385,,
1760466738.1911657,394,-0.5318241758241758,1.7104615384615385,162.09857142857146,187.58778625954199,-162.19847328244273,1.9465648854961832,2248.440366972477,-189.1743119266055,-257.70642201834863,,
1760466738.2227166,395,-0.5893186813186814,1.6242197802197802,163.9743296703297,162.18320610687022,-138.74809160305344,1.9465648854961832,2307.1559633027523,-212.66055045871562,-257.70642201834863,,
1760466738.2330585,396,-0.5605714285714286,1.7751428571428571,152.92819780219781,170.0,-154.38167938931298,1.9465648854961832,2365.8715596330276,-212.66055045871562,-210.73394495412842,,
1760466738.2539754,397,-0.539010989010989,1.6601538461538463,154.81114285714287,170.0,-152.42748091603053,1.9465648854961832,2424.587155963303,-189.1743119266055,-163.76146788990826,,
1760466738.285455,398,-0.5821318681318681,1.573912087912088,158.45485714285715,171.95419847328245,-142.65648854961833,1.9465648854961832,2483.302752293578,-212.66055045871562,-187.24770642201835,,
1760466738.296085,399,-0.459956043956044,1.6601538461538463,154.7249010989011,175.86259541984734,-142.65648854961833,1.9465648854961832,2542.0183486238534,-189.1743119266055,-210.73394495412842,,
1760466738.3173013,400,-0.6683736263736263,1.7320219780219783,147.34404395604398,173.9083969465649,-138.74809160305344,1.9465648854961832,2600.733944954128,-212.66055045871562,-257.70642201834863,,
1760466738.3489172,401,-0.5461978021978022,1.7320219780219783,140.03505494505495,183.6793893129771,-146.5648854961832,1.9465648854961832,2659.4495412844035,-306.60550458715596,-210.73394495412842,,
1760466738.3595452,402,-0.48870329670329676,1.688901098901099,147.43747252747252,164.13740458015266,-144.61068702290078,1.9465648854961832,2718.1651376146788,-189.1743119266055,-210.73394495412842,,
1760466738.3703508,403,-0.5246373626373626,1.724835164835165,154.7105274725275,162.18320610687022,-140.70229007633588,1.9465648854961832,2776.880733944954,-212.66055045871562,-234.2201834862385,,
1760466738.380832,404,-0.5246373626373626,1.7104615384615385,154.70334065934068,171.95419847328245,-142.65648854961833,1.9465648854961832,2835.5963302752293,-212.66055045871562,-281.1926605504587,,
1760466738.4123456,405,-0.4815164835164835,1.6529670329670332,145.59764835164836,175.86259541984734,-140.70229007633588,1.9465648854961832,2894.3119266055046,-212.66055045871562,-187.24770642201835,,
1760466738.433567,406,-0.5318241758241758,1.7392087912087915,156.56472527472528,187.58778625954199,-142.65648854961833,1.9465648854961832,2953.02752293578,-212.66055045871562,-234.2201834862385,,
1760466738.4444625,407,-0.5102637362637363,1.7751428571428571,147.32967032967034,166.0916030534351,-140.70229007633588,1.9465648854961832,-3000.733944954128,-236.1467889908257,-210.73394495412842,,
1760466738.4656591,408,-0.4743296703296704,1.609846153846154,158.3254945054945,164.13740458015266,-144.61068702290078,1.9465648854961832,-2942.0183486238534,-236.1467889908257,-234.2201834862385,,
1760466738.4971757,409,-0.5533846153846155,1.609846153846154,149.20542857142857,166.0916030534351,-148.51908396946564,1.9465648854961832,-2883.302752293578,-165.6880733944954,-234.2201834862385,,
1760466738.5079513,410,-0.5246373626373626,1.7032747252747253,151.15305494505495,162.18320610687022,-150.4732824427481,1.9465648854961832,-2824.587155963303,-189.1743119266055,-210.73394495412842,,
1760466738.5289814,411,-0.6108791208791209,1.6314065934065933,165.6704175824176,171.95419847328245,-142.65648854961833,1.9465648854961832,-2765.8715596330276,-212.66055045871562,-210.73394495412842,,
1760466738.5397074,412,-0.41683516483516486,1.6673406593406594,149.226989010989,179.7709923664122,-146.5648854961832,1.9465648854961832,-2707.1559633027523,-236.1467889908257,-187.24770642201835,,
1760466738.560813,413,-0.5893186813186814,1.688901098901099,156.50723076923077,173.9083969465649,-136.793893129771,1.9465648854961832,-2648.440366972477,-236.1467889908257,-210.73394495412842,,
1760466738.5926378,414,-0.5893186813186814,1.6673406593406594,151.09556043956044,177.81679389312978,-150.4732824427481,1.9465648854961832,-2589.7247706422017,-212.66055045871562,-187.24770642201835,,
1760466738.6034727,415,-0.4958901098901099,1.6673406593406594,147.38716483516484,156.3206106870229,-146.5648854961832,1.9465648854961832,-2531.0091743119265,-189.1743119266055,-234.2201834862385,,
1760466738.6247275,416,-0.5030769230769231,1.6026593406593408,152.83476923076924,183.6793893129771,-150.4732824427481,1.9465648854961832,-2472.293577981651,-236.1467889908257,-234.2201834862385,,
1760466738.656254,417,-0.5965054945054945,1.6529670329670332,149.23417582417582,168.04580152671755,-138.74809160305344,1.9465648854961832,-2413.577981651376,-189.1743119266055,-210.73394495412842,,
1760466738.666833,418,-0.5533846153846155,1.573912087912088,152.92819780219781,179.7709923664122,-144.61068702290078,1.9465648854961832,-2354.8623853211006,-165.6880733944954,-234.2201834862385,,
1760466738.6876063,419,-0.48870329670329676,1.7104615384615385,156.615032967033,166.0916030534351,-152.42748091603053,1.9465648854961832,-2296.146788990826,-212.66055045871562,-234.2201834862385,,
1760466738.6980789,420,-0.46714285714285714,1.7320219780219783,145.52578021978024,168.04580152671755,-148.51908396946564,1.9465648854961832,-2237.4311926605506,-212.66055045871562,-234.2201834862385,,
1760466738.7188008,421,-0.5030769230769231,1.6817142857142857,154.81114285714287,160.2290076335878,-146.5648854961832,1.9465648854961832,-2178.7155963302753,-212.66055045871562,-187.24770642201835,,
1760466738.7497802,422,-0.5174505494505495,1.6601538461538463,154.64584615384618,170.0,-152.42748091603053,1.9465648854961832,-2120.0,-189.1743119266055,-187.24770642201835,,
1760466738.7601418,423,-0.46714285714285714,1.7176483516483516,165.90758241758243,177.81679389312978,-154.38167938931298,1.9465648854961832,-2061.2844036697247,-189.1743119266055,-234.2201834862385,,
1760466738.7808576,424,-0.5605714285714286,1.688901098901099,154.73208791208793,183.6793893129771,-148.51908396946564,1.9465648854961832,-2002.5688073394494,-259.6330275229358,-257.70642201834863,,
1760466738.8124485,425,-0.5030769230769231,1.6673406593406594,154.78958241758244,166.0916030534351,-146.5648854961832,1.9465648854961832,-1943.8532110091742,-212.66055045871562,-210.73394495412842,,
1760466738.822988,426,-0.6252527472527473,1.6457802197802198,143.70032967032967,181.72519083969465,-140.70229007633588,1.9465648854961832,-1885.137614678899,-142.2018348623853,-234.2201834862385,,
1760466738.8436854,427,-0.4958901098901099,1.7895164835164834,160.21562637362638,164.13740458015266,-138.74809160305344,1.9465648854961832,-1826.4220183486239,-189.1743119266055,-234.2201834862385,,
1760466738.8540316,428,-0.43120879120879124,1.6385934065934065,143.70032967032967,171.95419847328245,-138.74809160305344,1.9465648854961832,-1767.7064220183486,-236.1467889908257,-210.73394495412842,,
1760466738.8747566,429,-0.6252527472527473,1.5954725274725277,147.33685714285716,170.0,-140.70229007633588,1.9465648854961832,-1708.9908256880733,-212.66055045871562,-234.2201834862385,,
1760466738.9057837,430,-0.5102637362637363,1.7392087912087915,160.344989010989,173.9083969465649,-148.51908396946564,1.9465648854961832,-1650.275229357798,-212.66055045871562,-210.73394495412842,,
1760466738.9162095,431,-0.6683736263736263,1.6457802197802198,151.03806593406594,158.27480916030535,-138.74809160305344,1.9465648854961832,-1591.559633027523,-212.66055045871562,-187.24770642201835,,
1760466738.937047,432,-0.48870329670329676,1.7823296703296703,156.59347252747253,166.0916030534351,-156.33587786259542,1.9465648854961832,-1532.8440366972477,-236.1467889908257,-257.70642201834863,,
1760466738.9684067,433,-0.6036923076923078,1.6960879120879122,147.32967032967034,164.13740458015266,-158.29007633587787,1.9465648854961832,-1474.1284403669727,-259.6330275229358,-234.2201834862385,,
1760466738.979083,434,-0.6396263736263736,1.5954725274725277,154.7752087912088,185.63358778625954,-142.65648854961833,1.9465648854961832,-1415.4128440366974,-189.1743119266055,-187.24770642201835,,
1760466739.0004978,435,-0.5461978021978022,1.7320219780219783,154.69615384615386,173.9083969465649,-138.74809160305344,1.9465648854961832,-1356.697247706422,-212.66055045871562,-234.2201834862385,,
1760466739.011173,436,-0.5893186813186814,1.6817142857142857,136.34821978021978,185.63358778625954,-146.5648854961832,1.9465648854961832,-1297.9816513761468,-212.66055045871562,-187.24770642201835,,
1760466739.0324025,437,-0.6252527472527473,1.6457802197802198,158.45485714285715,170.0,-138.74809160305344,1.9465648854961832,-1239.2660550458716,-236.1467889908257,-210.73394495412842,,
1760466739.0640543,438,-0.5318241758241758,1.724835164835165,154.7177142857143,154.36641221374046,-152.42748091603053,1.9465648854961832,-1180.5504587155963,-236.1467889908257,-234.2201834862385,,
1760466739.0746326,439,-0.654,1.6457802197802198,147.31529670329672,164.13740458015266,-144.61068702290078,1.9465648854961832,-1121.8348623853212,-236.1467889908257,-234.2201834862385,,
1760466739.0959003,440,-0.5965054945054945,1.617032967032967,154.74646153846155,166.0916030534351,-140.70229007633588,1.9465648854961832,-1063.119266055046,-212.66055045871562,-281.1926605504587,,
1760466739.1275678,441,-0.5533846153846155,1.7535824175824177,163.86652747252748,181.72519083969465,-138.74809160305344,1.9465648854961832,-1004.4036697247707,-236.1467889908257,-234.2201834862385,,
1760466739.1385033,442,-0.5605714285714286,1.6817142857142857,143.68595604395605,177.81679389312978,-142.65648854961833,1.9465648854961832,-945.6880733944954,-165.6880733944954,-187.24770642201835,,
1760466739.1596344,443,-0.6827472527472528,1.6314065934065933,154.768021978022,175.86259541984734,-144.61068702290078,1.9465648854961832,-886.9724770642202,-189.1743119266055,-234.2201834862385,,
1760466739.1703548,444,1.3439340659340662,0.03593406593406594,140.03505494505495,179.7709923664122,-142.65648854961833,1.9465648854961832,-828.256880733945,-212.66055045871562,-210.73394495412842,,
1760466739.1915522,445,-0.5965054945054945,1.6745274725274726,152.88507692307692,171.95419847328245,-144.61068702290078,1.9465648854961832,-769.5412844036698,-165.6880733944954,-210.73394495412842,,
1760466739.2023191,446,-0.5030769230769231,1.6673406593406594,162.1273186813187,189.54198473282443,-132.8854961832061,1.9465648854961832,-710.8256880733945,-189.1743119266055,-281.1926605504587,,
1760466739.2340138,447,-0.574945054945055,1.7967032967032968,149.226989010989,173.9083969465649,-138.74809160305344,1.9465648854961832,-652.1100917431193,-236.1467889908257,-187.24770642201835,,
1760466739.2552125,448,-0.48870329670329676,1.7392087912087915,151.10993406593408,177.81679389312978,-152.42748091603053,1.9465648854961832,-593.3944954128441,-212.66055045871562,-257.70642201834863,,
1760466739.2658036,449,-0.5030769230769231,1.688901098901099,152.88507692307692,166.0916030534351,-144.61068702290078,1.9465648854961832,-534.6788990825688,-212.66055045871562,-187.24770642201835,,
1760466739.2869685,450,-0.42402197802197805,1.6960879120879122,151.03087912087912,175.86259541984734,-148.51908396946564,1.9465648854961832,-475.9633027522936,-212.66055045871562,-234.2201834862385,,
1760466739.2977138,451,-0.5605714285714286,1.8038901098901101,158.41892307692308,170.0,-156.33587786259542,1.9465648854961832,-417.2477064220184,-212.66055045871562,-234.2201834862385,,
1760466739.3293233,452,-0.6899340659340659,1.6529670329670332,147.37997802197802,168.04580152671755,-146.5648854961832,1.9465648854961832,-358.5321100917431,-236.1467889908257,-210.73394495412842,,
1760466739.3609486,453,-0.5246373626373626,1.6314065934065933,154.7752087912088,183.6793893129771,-140.70229007633588,1.9465648854961832,-299.8165137614679,-212.66055045871562,-210.73394495412842,,
1760466739.3717039,454,-0.5821318681318681,1.7032747252747253,145.60483516483518,173.9083969465649,-136.793893129771,1.9465648854961832,-241.10091743119267,-212.66055045871562,-210.73394495412842,,
1760466739.3928075,455,-0.6468131868131869,1.767956043956044,149.1694945054945,166.0916030534351,-146.5648854961832,1.9465648854961832,-182.38532110091742,-236.1467889908257,-257.70642201834863,,
1760466739.4140532,456,-0.6396263736263736,1.688901098901099,138.23116483516483,177.81679389312978,-146.5648854961832,1.9465648854961832,-123.6697247706422,-212.66055045871562,-210.73394495412842,,
1760466739.4247458,457,-0.5246373626373626,1.688901098901099,169.46505494505493,171.95419847328245,-148.51908396946564,1.9465648854961832,-64.95412844036697,-189.1743119266055,-281.1926605504587,,
1760466739.456236,458,-0.654,1.6745274725274726,134.45090109890108,179.7709923664122,-146.5648854961832,1.9465648854961832,-6.238532110091743,-189.1743119266055,-234.2201834862385,,
1760466739.4669228,459,-0.574945054945055,1.6457802197802198,154.73208791208793,181.72519083969465,-156.33587786259542,1.9465648854961832,52.477064220183486,-236.05504587155966,-257.70642201834863,,
1760466739.4776976,460,-0.44558241758241757,1.7535824175824177,151.04525274725276,175.86259541984734,-148.51908396946564,1.9465648854961832,111.19266055045871,-236.05504587155966,-210.73394495412842,,
1760466739.5093296,461,-0.43120879120879124,1.7463956043956046,151.09556043956044,170.0,-142.65648854961833,1.9465648854961832,169.90825688073394,-165.59633027522935,-257.70642201834863,,
1760466739.520147,462,-0.6108791208791209,1.5667252747252747,151.00213186813187,158.27480916030535,-146.5648854961832,1.9465648854961832,228.62385321100916,-212.56880733944956,-234.2201834862385,,
1760466739.541419,463,-0.5174505494505495,1.6960879120879122,154.73208791208793,168.04580152671755,-140.70229007633588,1.9465648854961832,287.3394495412844,-189.08256880733944,-210.73394495412842,,
1760466739.572853,464,-0.5030769230769231,1.688901098901099,160.30186813186813,183.6793893129771,-150.4732824427481,1.9465648854961832,346.0550458715596,-236.05504587155966,-234.2201834862385,,
1760466739.5833213,465,-0.5893186813186814,1.7607692307692309,149.25573626373625,171.95419847328245,-148.51908396946564,1.9465648854961832,404.7706422018349,-212.56880733944956,-210.73394495412842,,
1760466739.6044781,466,-0.539010989010989,1.7895164835164834,154.7105274725275,179.7709923664122,-142.65648854961833,1.9465648854961832,463.4862385321101,-212.56880733944956,-187.24770642201835,,
1760466739.6360736,467,-0.3880879120879121,1.6960879120879122,138.18085714285715,168.04580152671755,-146.5648854961832,1.9465648854961832,522.2018348623853,-189.08256880733944,-257.70642201834863,,
1760466739.6467686,468,-0.46714285714285714,1.6601538461538463,152.92819780219781,166.0916030534351,-154.38167938931298,1.9465648854961832,580.9174311926606,-189.08256880733944,-187.24770642201835,,
1760466739.6681159,469,-0.4527692307692308,1.7176483516483516,149.2198021978022,170.0,-148.51908396946564,1.9465648854961832,639.6330275229358,-189.08256880733944,-210.73394495412842,,
1760466739.6787212,470,-0.42402197802197805,1.6529670329670332,163.93839560439562,185.63358778625954,-152.42748091603053,1.9465648854961832,698.3486238532109,-236.05504587155966,-210.73394495412842,,
1760466739.7002861,471,-0.6036923076923078,1.6026593406593408,151.15305494505495,177.81679389312978,-152.42748091603053,1.9465648854961832,757.0642201834862,-212.56880733944956,-234.2201834862385,,
1760466739.7108777,472,-0.5677582417582419,1.6817142857142857,149.2772967032967,164.13740458015266,-146.5648854961832,1.9465648854961832,815.7798165137615,-236.05504587155966,-234.2201834862385,,
1760466739.732042,473,-0.5246373626373626,1.573912087912088,152.91382417582417,171.95419847328245,-152.42748091603053,1.9465648854961832,874.4954128440368,-236.05504587155966,-234.2201834862385,,
1760466739.7638807,474,-0.5246373626373626,1.5667252747252747,156.5144175824176,162.18320610687022,-134.83969465648855,1.9465648854961832,933.211009174312,-189.08256880733944,-234.2201834862385,,
1760466739.774534,475,-0.574945054945055,1.7176483516483516,151.03806593406594,168.04580152671755,-144.61068702290078,1.9465648854961832,991.9266055045872,-236.05504587155966,-210.73394495412842,,
1760466739.79574,476,-0.5533846153846155,1.724835164835165,160.26593406593406,179.7709923664122,-152.42748091603053,1.9465648854961832,1050.6422018348624,-212.56880733944956,-257.70642201834863,,
1760466739.8274953,477,-0.6827472527472528,1.6673406593406594,156.58628571428574,193.45038167938932,-152.42748091603053,1.9465648854961832,1109.3577981651376,-165.59633027522935,-210.73394495412842,,
1760466739.838205,478,-0.654,1.7463956043956046,163.90964835164837,185.63358778625954,-150.4732824427481,1.9465648854961832,1168.073394495413,-212.56880733944956,-257.70642201834863,,
1760466739.859261,479,-0.6611868131868132,1.6960879120879122,152.9353846153846,168.04580152671755,-148.51908396946564,1.9465648854961832,1226.7889908256882,-236.05504587155966,-210.73394495412842,,
1760466739.869974,480,-0.6755604395604397,1.617032967032967,151.03087912087912,158.27480916030535,-144.61068702290078,1.9465648854961832,1285.5045871559635,-212.56880733944956,-257.70642201834863,,
1760466739.8911703,481,-0.4527692307692308,1.7032747252747253,151.04525274725276,166.0916030534351,-140.70229007633588,1.9465648854961832,1344.2201834862385,-165.59633027522935,-187.24770642201835,,
1760466739.9227946,482,-0.43120879120879124,1.6601538461538463,147.43747252747252,187.58778625954199,-144.61068702290078,1.9465648854961832,1402.9357798165138,-236.05504587155966,-210.73394495412842,,
1760466739.9334173,483,-0.5605714285714286,1.4876703296703295,156.56472527472528,179.7709923664122,-134.83969465648855,1.9465648854961832,1461.6513761467888,-212.56880733944956,-234.2201834862385,,
1760466739.9546049,484,-0.6324395604395605,1.6242197802197802,141.81019780219782,173.9083969465649,-138.74809160305344,1.9465648854961832,1520.366972477064,-212.56880733944956,-187.24770642201835,,
1760466739.9654272,485,-0.5605714285714286,1.6601538461538463,165.7279120879121,175.86259541984734,-150.4732824427481,1.9465648854961832,1579.0825688073394,-212.56880733944956,-210.73394495412842,,
1760466739.9865022,486,-0.5605714285714286,1.6601538461538463,145.51859340659342,160.2290076335878,-152.42748091603053,1.9465648854961832,1637.7981651376147,-212.56880733944956,-234.2201834862385,,
1760466740.0181518,487,-0.6683736263736263,1.6745274725274726,154.73927472527475,179.7709923664122,-146.5648854961832,1.9465648854961832,1696.51376146789,-236.05504587155966,-234.2201834862385,,
1760466740.0288134,488,-0.5174505494505495,1.6673406593406594,149.14074725274725,179.7709923664122,-140.70229007633588,1.9465648854961832,1755.229357798165,-259.5412844036697,-187.24770642201835,,
1760466740.049637,489,-0.5030769230769231,1.7104615384615385,152.9641318681319,187.58778625954199,-136.793893129771,1.9465648854961832,1813.9449541284403,-212.56880733944956,-210.73394495412842,,
1760466740.0810053,490,-0.459956043956044,1.7967032967032968,156.57909890109892,171.95419847328245,-146.5648854961832,1.9465648854961832,1872.6605504587155,-212.56880733944956,-187.24770642201835,,
1760466740.091709,491,-0.5605714285714286,1.6601538461538463,149.1623076923077,170.0,-156.33587786259542,1.9465648854961832,1931.3761467889908,-236.05504587155966,-257.70642201834863,,
1760466740.112946,492,1.2720659340659342,0.02874725274725275,149.1694945054945,160.2290076335878,-144.61068702290078,1.9465648854961832,1990.091743119266,-189.08256880733944,-210.73394495412842,,
1760466740.1238477,493,-0.6036923076923078,1.617032967032967,154.6674065934066,162.18320610687022,-140.70229007633588,1.9465648854961832,2048.8073394495414,-212.56880733944956,-234.2201834862385,,
1760466740.145084,494,-0.46714285714285714,1.5595384615384615,163.92402197802198,170.0,-125.06870229007633,1.9465648854961832,2107.5229357798166,-236.05504587155966,-281.1926605504587,,
1760466740.1767833,495,-0.5965054945054945,1.7392087912087915,151.08837362637362,199.31297709923663,-146.5648854961832,1.9465648854961832,2166.238532110092,-212.56880733944956,-257.70642201834863,,
1760466740.1874952,496,-0.574945054945055,1.6745274725274726,152.94975824175825,170.0,-138.74809160305344,1.9465648854961832,2224.9541284403667,-189.08256880733944,-234.2201834862385,,
1760466740.2087064,497,-0.6036923076923078,1.6673406593406594,158.31830769230768,179.7709923664122,-142.65648854961833,1.9465648854961832,2283.669724770642,-212.56880733944956,-187.24770642201835,,
1760466740.2403548,498,-0.4096483516483516,1.7320219780219783,156.54316483516484,160.2290076335878,-144.61068702290078,1.9465648854961832,2342.3853211009173,-165.59633027522935,-187.24770642201835,,
1760466740.2510118,499,-0.5102637362637363,1.7535824175824177,156.64378021978024,173.9083969465649,-144.61068702290078,1.9465648854961832,2401.1009174311926,-212.56880733944956,-281.1926605504587,,
1760466740.272347,500,-0.5893186813186814,1.7104615384615385,154.8255164835165,171.95419847328245,-140.70229007633588,1.9465648854961832,2459.816513761468,-189.08256880733944,-234.2201834862385,,
1760466740.2830594,501,-0.654,1.5882857142857145,156.55753846153848,199.31297709923663,-140.70229007633588,1.9465648854961832,2518.532110091743,-189.08256880733944,-234.2201834862385,,
1760466740.3043754,502,-0.6611868131868132,1.8110769230769233,151.08118681318683,164.13740458015266,-154.38167938931298,1.9465648854961832,2577.2477064220184,-259.5412844036697,-234.2201834862385,,
1760466740.3360744,503,-0.5102637362637363,1.7535824175824177,151.08118681318683,162.18320610687022,-150.4732824427481,1.9465648854961832,2635.9633027522937,-165.59633027522935,-281.1926605504587,,
1760466740.34674,504,-0.6252527472527473,1.6960879120879122,156.55035164835166,170.0,-154.38167938931298,1.9465648854961832,2694.678899082569,-259.5412844036697,-234.2201834862385,,
1760466740.3682647,505,-0.5318241758241758,1.6314065934065933,156.63659340659342,179.7709923664122,-146.5648854961832,1.9465648854961832,2753.394495412844,-259.5412844036697,-210.73394495412842,,
1760466740.399962,506,-0.43120879120879124,1.7392087912087915,134.53714285714287,168.04580152671755,-138.74809160305344,1.9465648854961832,2812.1100917431195,-189.08256880733944,-234.2201834862385,,
1760466740.4105392,507,-0.5102637362637363,1.6457802197802198,149.226989010989,183.6793893129771,-134.83969465648855,1.9465648854961832,2870.8256880733943,-212.56880733944956,-234.2201834862385,,
1760466740.4318264,508,-0.6324395604395605,1.6745274725274726,132.647010989011,173.9083969465649,-142.65648854961833,1.9465648854961832,2929.5412844036696,-212.56880733944956,-210.73394495412842,,
1760466740.4424162,509,-0.4815164835164835,1.7392087912087915,151.13149450549452,170.0,-146.5648854961832,1.9465648854961832,2988.256880733945,-236.05504587155966,-187.24770642201835,,
1760466740.4636345,510,-0.6108791208791209,1.767956043956044,156.56472527472528,162.18320610687022,-150.4732824427481,1.9465648854961832,-2965.5045871559632,-212.56880733944956,-234.2201834862385,,
1760466740.4745598,511,-0.5605714285714286,1.7392087912087915,156.5216043956044,183.6793893129771,-130.93129770992365,1.9465648854961832,-2906.788990825688,-236.05504587155966,-257.70642201834863,,
1760466740.4958093,512,-0.5821318681318681,1.7176483516483516,154.68178021978022,170.0,-148.51908396946564,1.9465648854961832,-2848.0733944954127,-212.56880733944956,-281.1926605504587,,
1760466740.5273938,513,-0.4958901098901099,1.7032747252747253,154.68178021978022,179.7709923664122,-144.61068702290078,1.9465648854961832,-2789.3577981651374,-189.08256880733944,-187.24770642201835,,
1760466740.5380251,514,-0.46714285714285714,1.7751428571428571,132.66138461538463,173.9083969465649,-154.38167938931298,1.9465648854961832,-2730.642201834862,-212.56880733944956,-234.2201834862385,,
1760466740.5591161,515,-0.5677582417582419,1.6385934065934065,151.05962637362637,166.0916030534351,-150.4732824427481,1.9465648854961832,-2671.9266055045873,-236.05504587155966,-210.73394495412842,,
1760466740.5908327,516,-0.5533846153846155,1.7320219780219783,152.9353846153846,152.41221374045801,-142.65648854961833,1.9465648854961832,-2613.211009174312,-212.56880733944956,-234.2201834862385,,
1760466740.601454,517,-0.4024615384615385,1.6026593406593408,152.99287912087914,175.86259541984734,-146.5648854961832,1.9465648854961832,-2554.4954128440368,-236.05504587155966,-210.73394495412842,,
1760466740.622543,518,-0.44558241758241757,1.6457802197802198,167.56773626373626,171.95419847328245,-146.5648854961832,1.9465648854961832,-2495.7798165137615,-212.56880733944956,-234.2201834862385,,
1760466740.6331418,519,-0.48870329670329676,1.7032747252747253,156.50723076923077,175.86259541984734,-148.51908396946564,1.9465648854961832,-2437.064220183486,-212.56880733944956,-210.73394495412842,,
1760466740.6543195,520,-0.5965054945054945,1.7176483516483516,160.27312087912088,175.86259541984734,-152.42748091603053,1.9465648854961832,-2378.348623853211,-212.56880733944956,-257.70642201834863,,
1760466740.6858861,521,-0.654,1.767956043956044,147.29373626373626,168.04580152671755,-144.61068702290078,1.9465648854961832,-2319.6330275229357,-189.08256880733944,-257.70642201834863,,
1760466740.6965146,522,-0.5030769230769231,1.7895164835164834,147.28654945054944,173.9083969465649,-146.5648854961832,1.9465648854961832,-2260.9174311926604,-165.59633027522935,-163.76146788990826,,
1760466740.7180157,523,-0.5533846153846155,1.7392087912087915,154.6674065934066,166.0916030534351,-148.51908396946564,1.9465648854961832,-2202.201834862385,-189.08256880733944,-234.2201834862385,,
1760466740.7285948,524,-0.6396263736263736,1.7176483516483516,163.88090109890112,160.2290076335878,-140.70229007633588,1.9465648854961832,-2143.48623853211,-236.05504587155966,-210.73394495412842,,
1760466740.749793,525,-0.574945054945055,1.6817142857142857,152.8707032967033,168.04580152671755,-132.8854961832061,1.9465648854961832,-2084.7706422018346,-236.05504587155966,-234.2201834862385,,
1760466740.7814488,526,-0.6108791208791209,1.724835164835165,151.15305494505495,175.86259541984734,-146.5648854961832,1.9465648854961832,-2026.0550458715595,-165.59633027522935,-281.1926605504587,,
1760466740.7921562,527,-0.6324395604395605,1.7032747252747253,156.54316483516484,195.40458015267177,-148.51908396946564,1.9465648854961832,-1967.3394495412842,-212.56880733944956,-210.73394495412842,,
1760466740.8134859,528,-0.5533846153846155,1.6673406593406594,149.2126153846154,175.86259541984734,-148.51908396946564,1.9465648854961832,-1908.6238532110092,-259.5412844036697,-210.73394495412842,,
1760466740.8451898,529,-0.539010989010989,1.724835164835165,154.68896703296704,168.04580152671755,-154.38167938931298,1.9465648854961832,-1849.908256880734,-189.08256880733944,-234.2201834862385,,
1760466740.8558877,530,-0.41683516483516486,1.724835164835165,149.19824175824175,158.27480916030535,-148.51908396946564,1.9465648854961832,-1791.1926605504586,-189.08256880733944,-187.24770642201835,,
1760466740.8769882,531,-0.5246373626373626,1.6529670329670332,147.33685714285716,168.04580152671755,-146.5648854961832,1.9465648854961832,-1732.4770642201834,-236.05504587155966,-281.1926605504587,,
1760466740.8876224,532,-0.3809010989010989,1.7751428571428571,143.5997142857143,171.95419847328245,-144.61068702290078,1.9465648854961832,-1673.761467889908,-189.08256880733944,-210.73394495412842,,
1760466740.9089406,533,1.3295604395604395,0.02874725274725275,151.03087912087912,187.58778625954199,-156.33587786259542,1.9465648854961832,-1615.0458715596328,-212.56880733944956,-234.2201834862385,,
1760466740.9404764,534,-0.5174505494505495,1.5810989010989014,158.3758021978022,171.95419847328245,-144.61068702290078,1.9465648854961832,-1556.3302752293578,-236.05504587155966,-210.73394495412842,,
1760466740.9511764,535,-0.5893186813186814,1.5954725274725277,149.19824175824175,168.04580152671755,-146.5648854961832,1.9465648854961832,-1497.6146788990827,-189.08256880733944,-187.24770642201835,,
1760466740.9724128,536,-0.5461978021978022,1.7032747252747253,165.79259340659343,156.3206106870229,-150.4732824427481,1.9465648854961832,-1438.8990825688074,-236.05504587155966,-234.2201834862385,,
1760466741.0042448,537,-0.6180659340659341,1.7032747252747253,156.47848351648352,170.0,-138.74809160305344,1.9465648854961832,-1380.1834862385322,-165.59633027522935,-234.2201834862385,,
1760466741.0150104,538,-0.574945054945055,1.7895164835164834,151.14586813186816,187.58778625954199,-142.65648854961833,1.9465648854961832,-1321.467889908257,-142.11009174311926,-234.2201834862385,,
1760466741.0364866,539,-0.459956043956044,1.6529670329670332,145.51859340659342,199.31297709923663,-144.61068702290078,1.9465648854961832,-1262.7522935779816,-189.08256880733944,-234.2201834862385,,
1760466741.0481334,540,-0.5893186813186814,1.7535824175824177,136.4129010989011,173.9083969465649,-148.51908396946564,1.9465648854961832,-1204.0366972477066,-212.56880733944956,-257.70642201834863,,
1760466741.070882,541,-0.6108791208791209,1.7463956043956046,156.55035164835166,168.04580152671755,-154.38167938931298,1.9465648854961832,-1145.3211009174313,-236.05504587155966,-210.73394495412842,,
1760466741.091829,542,-0.6252527472527473,1.6960879120879122,152.89226373626374,152.41221374045801,-150.4732824427481,1.9465648854961832,-1086.605504587156,-189.08256880733944,-163.76146788990826,,
1760466741.102223,543,-0.48870329670329676,1.7104615384615385,152.84195604395606,168.04580152671755,-142.65648854961833,1.9465648854961832,-1027.8899082568807,-189.08256880733944,-210.73394495412842,,
1760466741.1229534,544,-0.654,1.6745274725274726,154.63147252747254,171.95419847328245,-146.5648854961832,1.9465648854961832,-969.1743119266056,-212.56880733944956,-234.2201834862385,,
1760466741.1547184,545,-0.42402197802197805,1.6529670329670332,156.64378021978024,187.58778625954199,-150.4732824427481,1.9465648854961832,-910.4587155963303,-189.08256880733944,-210.73394495412842,,
1760466741.1651292,546,-0.5965054945054945,1.688901098901099,143.62846153846155,171.95419847328245,-150.4732824427481,1.9465648854961832,-851.743119266055,-189.08256880733944,-234.2201834862385,,
1760466741.1859443,547,-0.5246373626373626,1.6385934065934065,151.02369230769233,170.0,-140.70229007633588,1.9465648854961832,-793.0275229357799,-189.08256880733944,-257.70642201834863,,
1760466741.1962845,548,-0.5965054945054945,1.724835164835165,149.17668131868132,177.81679389312978,-146.5648854961832,1.9465648854961832,-734.3119266055046,-212.56880733944956,-210.73394495412842,,
1760466741.2169394,549,-0.5461978021978022,1.6673406593406594,160.20125274725274,171.95419847328245,-146.5648854961832,1.9465648854961832,-675.5963302752294,-189.08256880733944,-210.73394495412842,,
1760466741.247852,550,-0.4815164835164835,1.7104615384615385,156.6725274725275,171.95419847328245,-144.61068702290078,1.9465648854961832,-616.8807339449542,-212.56880733944956,-234.2201834862385,,
1760466741.258244,551,-0.6683736263736263,1.6673406593406594,151.0165054945055,173.9083969465649,-144.61068702290078,1.9465648854961832,-558.1651376146789,-189.08256880733944,-257.70642201834863,,
1760466741.2789817,552,-0.574945054945055,1.5379780219780221,152.83476923076924,171.95419847328245,-142.65648854961833,1.9465648854961832,-499.44954128440367,-212.56880733944956,-234.2201834862385,,
1760466741.3099914,553,-0.6396263736263736,1.688901098901099,154.78239560439562,164.13740458015266,-144.61068702290078,1.9465648854961832,-440.73394495412845,-212.56880733944956,-234.2201834862385,,
1760466741.3203573,554,-0.5677582417582419,1.6960879120879122,162.09857142857146,164.13740458015266,-148.51908396946564,1.9465648854961832,-382.0183486238532,-212.56880733944956,-234.2201834862385,,
1760466741.3411198,555,-0.4815164835164835,1.6960879120879122,158.35424175824176,164.13740458015266,-148.51908396946564,1.9465648854961832,-323.302752293578,-189.08256880733944,-210.73394495412842,,
1760466741.3515449,556,-0.5893186813186814,1.5954725274725277,141.86769230769232,181.72519083969465,-152.42748091603053,1.9465648854961832,-264.58715596330273,-189.08256880733944,-210.73394495412842,,
1760466741.3824575,557,-0.46714285714285714,1.6960879120879122,152.8778901098901,183.6793893129771,-142.65648854961833,1.9465648854961832,-205.87155963302752,-212.56880733944956,-210.73394495412842,,
1760466741.3927827,558,-0.4024615384615385,1.6385934065934065,156.58628571428574,175.86259541984734,-134.83969465648855,1.9465648854961832,-147.1559633027523,-236.05504587155966,-234.2201834862385,,
1760466741.4133463,559,-0.574945054945055,1.7535824175824177,156.55753846153848,173.9083969465649,-148.51908396946564,1.9465648854961832,-88.44036697247707,-189.08256880733944,-257.70642201834863,,
1760466741.4441562,560,-0.5821318681318681,1.6745274725274726,158.43329670329672,152.41221374045801,-144.61068702290078,1.9465648854961832,-29.724770642201836,-236.05504587155966,-281.1926605504587,,
1760466741.4545221,561,-0.4958901098901099,1.7823296703296703,152.91382417582417,170.0,-148.51908396946564,1.9465648854961832,28.990825688073397,-212.47706422018348,-187.24770642201835,,
1760466741.4751372,562,-0.5821318681318681,1.7320219780219783,147.45903296703298,173.9083969465649,-148.51908396946564,1.9465648854961832,87.70642201834863,-212.47706422018348,-234.2201834862385,,
1760466741.5061,563,-0.6468131868131869,1.6314065934065933,151.09556043956044,193.45038167938932,-150.4732824427481,1.9465648854961832,146.42201834862385,-259.44954128440367,-210.73394495412842,,
1760466741.516497,564,-0.5605714285714286,1.6529670329670332,154.73927472527475,168.04580152671755,-146.5648854961832,1.9465648854961832,205.13761467889907,-259.44954128440367,-234.2201834862385,,
1760466741.5372317,565,-0.5677582417582419,1.6673406593406594,149.112,162.18320610687022,-156.33587786259542,1.9465648854961832,263.8532110091743,-165.5045871559633,-234.2201834862385,,
1760466741.5682817,566,-0.5893186813186814,1.7032747252747253,158.39736263736265,168.04580152671755,-150.4732824427481,1.9465648854961832,322.5688073394495,-235.96330275229354,-257.70642201834863,,
1760466741.5786889,567,-0.5174505494505495,1.7751428571428571,151.0093186813187,170.0,-156.33587786259542,1.9465648854961832,381.2844036697248,-212.47706422018348,-234.2201834862385,,
1760466741.5995018,568,-0.5318241758241758,1.7176483516483516,160.27312087912088,181.72519083969465,-150.4732824427481,1.9465648854961832,440.00000000000006,-188.9908256880734,-257.70642201834863,,
1760466741.6098464,569,-0.4815164835164835,1.6314065934065933,141.92518681318683,197.3587786259542,-150.4732824427481,1.9465648854961832,498.7155963302753,-212.47706422018348,-234.2201834862385,,
1760466741.6305127,570,-0.4815164835164835,1.767956043956044,151.02369230769233,175.86259541984734,-142.65648854961833,1.9465648854961832,557.4311926605506,-165.5045871559633,-234.2201834862385,,
1760466741.6409369,571,-0.6396263736263736,1.6385934065934065,154.65303296703297,171.95419847328245,-142.65648854961833,1.9465648854961832,616.1467889908256,-188.9908256880734,-210.73394495412842,,
1760466741.6720114,572,-0.5102637362637363,1.6601538461538463,156.5719120879121,156.3206106870229,-134.83969465648855,1.9465648854961832,674.8623853211009,-235.96330275229354,-234.2201834862385,,
1760466741.7028642,573,-0.5605714285714286,1.6026593406593408,160.24437362637363,177.81679389312978,-136.793893129771,1.9465648854961832,733.5779816513761,-212.47706422018348,-210.73394495412842,,
1760466741.7131648,574,-0.539010989010989,1.6457802197802198,149.31323076923076,175.86259541984734,-146.5648854961832,1.9465648854961832,792.2935779816513,-235.96330275229354,-163.76146788990826,,
1760466741.7338524,575,-0.5318241758241758,1.8038901098901101,158.382989010989,195.40458015267177,-148.51908396946564,1.9465648854961832,851.0091743119267,-212.47706422018348,-210.73394495412842,,
1760466741.7441928,576,-0.6252527472527473,1.7032747252747253,141.88925274725275,189.54198473282443,-142.65648854961833,1.9465648854961832,909.7247706422019,-235.96330275229354,-234.2201834862385,,
1760466741.7649224,577,-0.4815164835164835,1.7032747252747253,162.09857142857146,166.0916030534351,-152.42748091603053,1.9465648854961832,968.4403669724771,-165.5045871559633,-234.2201834862385,,
1760466741.7958152,578,-0.5821318681318681,1.767956043956044,158.4836043956044,171.95419847328245,-140.70229007633588,1.9465648854961832,1027.1559633027523,-212.47706422018348,-210.73394495412842,,
1760466741.8061159,579,-0.5893186813186814,1.6745274725274726,143.70032967032967,171.95419847328245,-152.42748091603053,1.9465648854961832,1085.8715596330276,-235.96330275229354,-210.73394495412842,,
1760466741.8267431,580,-0.6108791208791209,1.5164175824175825,163.85215384615387,177.81679389312978,-140.70229007633588,1.9465648854961832,1144.5871559633028,-235.96330275229354,-210.73394495412842,,
1760466741.8370452,581,-0.44558241758241757,1.6314065934065933,152.91382417582417,191.49618320610688,-136.793893129771,1.9465648854961832,1203.3027522935781,-235.96330275229354,-257.70642201834863,,
1760466741.8577032,582,-0.5461978021978022,1.617032967032967,160.33061538461538,185.63358778625954,-138.74809160305344,1.9465648854961832,1262.0183486238534,-212.47706422018348,-234.2201834862385,,
1760466741.8886046,583,-0.5605714285714286,1.724835164835165,149.08325274725274,173.9083969465649,-144.61068702290078,1.9465648854961832,1320.7339449541284,-212.47706422018348,-187.24770642201835,,
1760466741.8990438,584,-0.5965054945054945,1.6026593406593408,158.41892307692308,158.27480916030535,-146.5648854961832,1.9465648854961832,1379.4495412844037,-235.96330275229354,-187.24770642201835,,
1760466741.9196792,585,-0.5533846153846155,1.5954725274725277,151.0668131868132,173.9083969465649,-138.74809160305344,1.9465648854961832,1438.1651376146788,-259.44954128440367,-234.2201834862385,,
1760466741.9505358,586,-0.5965054945054945,1.6817142857142857,149.19105494505496,171.95419847328245,-154.38167938931298,1.9465648854961832,1496.880733944954,-212.47706422018348,-210.73394495412842,,
1760466741.9608636,587,-0.42402197802197805,1.724835164835165,162.16325274725278,177.81679389312978,-144.61068702290078,1.9465648854961832,1555.5963302752293,-212.47706422018348,-234.2201834862385,,
1760466741.9817884,588,-0.539010989010989,1.7176483516483516,152.89226373626374,162.18320610687022,-136.793893129771,1.9465648854961832,1614.3119266055046,-212.47706422018348,-210.73394495412842,,
1760466742.012775,589,-0.5461978021978022,1.6601538461538463,141.88206593406593,162.18320610687022,-152.42748091603053,1.9465648854961832,1673.0275229357796,-212.47706422018348,-234.2201834862385,,
1760466742.0231705,590,-0.5246373626373626,1.688901098901099,145.5545274725275,164.13740458015266,-142.65648854961833,1.9465648854961832,1731.743119266055,-259.44954128440367,-210.73394495412842,,
1760466742.044021,591,-0.5677582417582419,1.7032747252747253,158.4836043956044,175.86259541984734,-144.61068702290078,1.9465648854961832,1790.4587155963302,-212.47706422018348,-210.73394495412842,,
1760466742.0544667,592,-0.7043076923076923,1.7751428571428571,152.8778901098901,173.9083969465649,-150.4732824427481,1.9465648854961832,1849.1743119266055,-188.9908256880734,-210.73394495412842,,
1760466742.0752075,593,-0.654,1.6385934065934065,151.0165054945055,181.72519083969465,-148.51908396946564,1.9465648854961832,1907.8899082568807,-235.96330275229354,-257.70642201834863,,
1760466742.1061718,594,-0.44558241758241757,1.7535824175824177,160.1725054945055,179.7709923664122,-138.74809160305344,1.9465648854961832,1966.6055045871558,-212.47706422018348,-163.76146788990826,,
1760466742.1165714,595,-0.6755604395604397,1.573912087912088,156.56472527472528,166.0916030534351,-148.51908396946564,1.9465648854961832,2025.321100917431,-188.9908256880734,-210.73394495412842,,
1760466742.137458,596,-0.5246373626373626,1.7320219780219783,158.40454945054947,168.04580152671755,-152.42748091603053,1.9465648854961832,2084.0366972477063,-235.96330275229354,-210.73394495412842,,
1760466742.1687758,597,-0.6396263736263736,1.6745274725274726,147.28654945054944,170.0,-140.70229007633588,1.9465648854961832,2142.7522935779816,-212.47706422018348,-210.73394495412842,,
1760466742.179408,598,-0.5102637362637363,1.7176483516483516,151.08837362637362,183.6793893129771,-148.51908396946564,1.9465648854961832,2201.467889908257,-235.96330275229354,-234.2201834862385,,
1760466742.2006142,599,1.3798681318681318,0.0,154.85426373626376,185.63358778625954,-148.51908396946564,1.9465648854961832,2260.183486238532,-212.47706422018348,-187.24770642201835,,
1760466742.211325,600,-0.6180659340659341,1.5882857142857145,152.8707032967033,187.58778625954199,-140.70229007633588,1.9465648854961832,2318.8990825688074,-235.96330275229354,-234.2201834862385,,
1760466742.232591,601,-0.43120879120879124,1.5523516483516484,169.500989010989,162.18320610687022,-154.38167938931298,1.9465648854961832,2377.6146788990827,-212.47706422018348,-234.2201834862385,,
1760466742.2643964,602,-0.5318241758241758,1.7176483516483516,138.25272527472526,160.2290076335878,-148.51908396946564,1.9465648854961832,2436.3302752293575,-212.47706422018348,-187.24770642201835,,
1760466742.2750885,603,-0.539010989010989,1.7104615384615385,158.43329670329672,173.9083969465649,-146.5648854961832,1.9465648854961832,2495.045871559633,-212.47706422018348,-257.70642201834863,,
1760466742.296223,604,-0.5965054945054945,1.5810989010989014,160.2371868131868,168.04580152671755,-150.4732824427481,1.9465648854961832,2553.761467889908,-212.47706422018348,-257.70642201834863,,
